# 0time	1gyr_p	2gyr_q	3gyr_r	4acc_x	5acc_y	6acc_z	7mag_x	8mag_y	9mag_z	10altitude	11theta	12phi	13psi
0.002000	-0.061035	0.000000	0.122070	0.019160	0.000000	9.752520	0.000000	0.000000	0.000000	17	0.000225	-0.000012	0.000024	0.002251 	-0.000120	0.000244
0.004000	0.061035	-0.061035	0.000000	0.019160	0.000000	9.752520	0.000000	0.000000	0.000000	17	0.000636	-0.000011	0.000046	0.004338 	0.000002	0.000244
0.006000	-0.061035	0.000000	-0.061035	0.019160	0.000000	9.752520	0.000000	0.000000	0.000000	17	0.001223	-0.000021	0.000054	0.006503 	-0.000117	0.000122
0.008000	0.061035	-0.061035	-0.122070	0.019160	0.000000	9.752520	0.000000	0.000000	0.000000	17	0.001951	-0.000019	0.000036	0.008504 	0.000005	-0.000122
0.010000	0.061035	-0.061035	0.000000	0.019160	0.000000	9.752520	0.000000	0.000000	0.000000	17	0.002803	-0.000004	0.000021	0.010466 	0.000124	-0.000122
0.012000	0.000000	0.000000	0.061035	0.019160	0.000000	9.752520	0.000000	0.000000	0.000000	17	0.003773	0.000008	0.000018	0.012508 	0.000122	0.000000
0.014000	0.061035	-0.061035	0.000000	0.019160	0.000000	9.752520	0.000000	0.000000	0.000000	17	0.004835	0.000031	0.000017	0.014390 	0.000239	0.000000
0.016000	0.061035	0.000000	0.061035	0.019160	0.000000	9.829160	0.000000	0.000000	0.000000	17	0.005985	0.000064	0.000027	0.016336 	0.000354	0.000122
0.018000	0.000000	-0.061035	-0.122070	0.019160	0.000000	9.829160	0.000000	0.000000	0.000000	15	0.007199	0.000092	0.000012	0.018123 	0.000347	-0.000122
0.020000	0.000000	-0.061035	-0.122070	0.019160	0.000000	9.829160	0.000000	0.000000	0.000000	15	0.008466	0.000117	-0.000026	0.019875 	0.000340	-0.000366
0.022000	0.000000	0.000000	-0.122070	0.019160	0.000000	9.829160	0.000000	0.000000	0.000000	15	0.009791	0.000138	-0.000084	0.021711 	0.000333	-0.000610
0.024000	0.000000	0.000000	-0.122070	0.019160	0.000000	9.829160	0.000000	0.000000	0.000000	15	0.011163	0.000157	-0.000161	0.023511 	0.000326	-0.000854
0.026000	0.000000	-0.122070	0.000000	0.019160	0.000000	9.829160	0.000000	0.000000	0.000000	15	0.012550	0.000173	-0.000230	0.025035 	0.000320	-0.000854
0.028000	0.000000	-0.122070	0.000000	0.019160	0.000000	9.829160	0.000000	0.000000	0.000000	15	0.013948	0.000187	-0.000293	0.026529 	0.000313	-0.000854
0.030000	0.000000	-0.122070	0.000000	0.019160	0.000000	9.829160	0.000000	0.000000	0.000000	15	0.015352	0.000199	-0.000349	0.027993 	0.000307	-0.000854
0.032000	0.000000	-0.122070	-0.061035	0.019160	0.000000	9.829160	0.000000	0.000000	0.000000	15	0.016760	0.000210	-0.000412	0.029428 	0.000301	-0.000977
0.034000	0.000000	-0.122070	-0.061035	0.019160	0.000000	9.829160	0.000000	0.000000	0.000000	15	0.018167	0.000218	-0.000480	0.030834 	0.000295	-0.001099
0.036000	0.061035	-0.061035	-0.061035	0.019160	0.000000	9.829160	0.000000	0.000000	0.000000	15	0.019584	0.000237	-0.000554	0.032331 	0.000409	-0.001221
0.038000	0.061035	-0.061035	-0.061035	0.019160	0.000000	9.829160	0.000000	0.000000	0.000000	15	0.021005	0.000265	-0.000633	0.033799 	0.000520	-0.001343
0.040000	0.061035	-0.061035	-0.061035	0.019160	0.000000	9.829160	0.000000	0.000000	0.000000	15	0.022428	0.000302	-0.000716	0.035237 	0.000629	-0.001465
0.042000	-0.122070	-0.061035	-0.061035	0.019160	0.000000	9.829160	0.000000	0.000000	0.000000	15	0.023850	0.000309	-0.000804	0.036646 	0.000378	-0.001587
0.044000	-0.122070	-0.061035	-0.061035	0.019160	0.000000	9.829160	0.000000	0.000000	0.000000	15	0.025268	0.000292	-0.000894	0.038028 	0.000131	-0.001709
0.046000	0.000000	-0.061035	-0.061035	0.019160	0.000000	9.829160	0.000000	0.000000	0.000000	15	0.026679	0.000275	-0.000988	0.039381 	0.000128	-0.001831
0.048000	0.000000	-0.061035	-0.061035	0.019160	0.000000	9.829160	0.000000	0.000000	0.000000	15	0.028082	0.000260	-0.001084	0.040708 	0.000126	-0.001953
0.050000	0.000000	-0.061035	-0.061035	0.019160	0.000000	9.829160	0.000000	0.000000	0.000000	15	0.029475	0.000247	-0.001183	0.042008 	0.000123	-0.002075
0.052000	0.000000	-0.122070	0.000000	0.019160	0.000000	9.752520	0.000000	0.000000	0.000000	15	0.030845	0.000234	-0.001273	0.043180 	0.000121	-0.002075
0.054000	0.000000	-0.122070	0.000000	0.019160	0.000000	9.752520	0.000000	0.000000	0.000000	15	0.032194	0.000222	-0.001353	0.044328 	0.000118	-0.002075
0.056000	-0.122070	0.000000	0.000000	0.019160	0.000000	9.752520	0.000000	0.000000	0.000000	15	0.033544	0.000188	-0.001425	0.045693 	-0.000123	-0.002075
0.058000	-0.122070	0.000000	0.000000	0.019160	0.000000	9.752520	0.000000	0.000000	0.000000	15	0.034892	0.000133	-0.001490	0.047031 	-0.000360	-0.002075
0.060000	-0.122070	0.000000	0.000000	0.019160	0.000000	9.752520	0.000000	0.000000	0.000000	15	0.036237	0.000060	-0.001549	0.048341 	-0.000592	-0.002075
0.062000	0.000000	-0.061035	0.000000	-0.057480	0.000000	9.752520	0.000000	0.000000	0.000000	17	0.036664	-0.000004	-0.001601	0.040501 	-0.000580	-0.002075
0.064000	0.000000	-0.061035	0.000000	-0.057480	0.000000	9.752520	0.000000	0.000000	0.000000	17	0.036279	-0.000060	-0.001649	0.032817 	-0.000569	-0.002075
0.066000	0.000000	-0.122070	0.000000	-0.057480	0.000000	9.752520	0.000000	0.000000	0.000000	17	0.035168	-0.000110	-0.001691	0.025168 	-0.000557	-0.002075
0.068000	0.000000	-0.122070	0.000000	-0.057480	0.000000	9.752520	0.000000	0.000000	0.000000	17	0.033418	-0.000154	-0.001730	0.017671 	-0.000546	-0.002075
0.070000	0.000000	-0.122070	0.000000	-0.057480	0.000000	9.752520	0.000000	0.000000	0.000000	17	0.031109	-0.000192	-0.001764	0.010324 	-0.000535	-0.002075
0.072000	-0.061035	0.061035	0.244141	0.019160	0.000000	9.752520	0.000000	0.000000	0.000000	17	0.029247	-0.000237	-0.001747	0.012489 	-0.000644	-0.001587
0.074000	-0.061035	0.061035	0.244141	0.019160	0.000000	9.752520	0.000000	0.000000	0.000000	17	0.027783	-0.000288	-0.001682	0.014610 	-0.000751	-0.001099
0.076000	-0.183105	-0.061035	0.122070	-0.057480	0.000000	9.752520	0.000000	0.000000	0.000000	17	0.025749	-0.000369	-0.001599	0.007444 	-0.001095	-0.000854
0.078000	-0.183105	-0.061035	0.122070	-0.057480	0.000000	9.752520	0.000000	0.000000	0.000000	17	0.023216	-0.000475	-0.001500	0.000422 	-0.001432	-0.000610
0.080000	-0.183105	-0.061035	0.122070	-0.057480	0.000000	9.752520	0.000000	0.000000	0.000000	17	0.020249	-0.000604	-0.001387	-0.006461 	-0.001762	-0.000366
0.082000	-0.183105	0.000000	0.305176	-0.057480	0.000000	9.752520	0.000000	0.000000	0.000000	17	0.016915	-0.000752	-0.001224	-0.013085 	-0.002086	0.000244
0.084000	-0.183105	0.000000	0.305176	-0.057480	0.000000	9.752520	0.000000	0.000000	0.000000	17	0.013266	-0.000917	-0.001016	-0.019578 	-0.002403	0.000854
0.086000	0.122070	-0.061035	0.244141	-0.057480	0.000000	9.752520	0.000000	0.000000	0.000000	17	0.009333	-0.001037	-0.000780	-0.026060 	-0.002116	0.001343
0.088000	0.122070	-0.061035	0.244141	-0.057480	0.000000	9.752520	0.000000	0.000000	0.000000	17	0.005159	-0.001117	-0.000519	-0.032412 	-0.001834	0.001831
0.090000	0.122070	-0.061035	0.244141	-0.057480	0.000000	9.752520	0.000000	0.000000	0.000000	17	0.000779	-0.001161	-0.000235	-0.038638 	-0.001558	0.002319
0.092000	-0.061035	-0.061035	0.305176	-0.057480	0.000000	9.752520	0.000000	0.000000	0.000000	17	-0.003773	-0.001210	0.000081	-0.044739 	-0.001647	0.002930
0.094000	-0.061035	-0.061035	0.305176	-0.057480	0.000000	9.752520	0.000000	0.000000	0.000000	17	-0.008467	-0.001262	0.000427	-0.050718 	-0.001733	0.003540
0.096000	-0.061035	0.061035	0.183105	-0.057480	0.000000	9.752520	0.000000	0.000000	0.000000	17	-0.013254	-0.001318	0.000775	-0.056338 	-0.001818	0.003906
0.098000	-0.061035	0.061035	0.183105	-0.057480	0.000000	9.752520	0.000000	0.000000	0.000000	17	-0.018113	-0.001376	0.001125	-0.061845 	-0.001902	0.004272
0.100000	-0.061035	0.061035	0.183105	-0.057480	0.000000	9.752520	0.000000	0.000000	0.000000	17	-0.023026	-0.001437	0.001476	-0.067243 	-0.001983	0.004639
0.102000	0.000000	0.061035	0.305176	-0.057480	0.000000	9.752520	0.000000	0.000000	0.000000	17	-0.027977	-0.001487	0.001854	-0.072532 	-0.001943	0.005249
0.104000	0.000000	0.061035	0.305176	-0.057480	0.000000	9.752520	0.000000	0.000000	0.000000	17	-0.032951	-0.001529	0.002254	-0.077716 	-0.001905	0.005859
0.106000	0.061035	0.122070	0.244141	-0.057480	0.000000	9.752520	0.000000	0.000000	0.000000	16	-0.037923	-0.001551	0.002663	-0.082677 	-0.001747	0.006348
0.108000	0.061035	0.122070	0.244141	-0.057480	0.000000	9.752520	0.000000	0.000000	0.000000	16	-0.042885	-0.001555	0.003081	-0.087538 	-0.001592	0.006836
0.110000	0.061035	0.122070	0.244141	-0.057480	0.000000	9.752520	0.000000	0.000000	0.000000	16	-0.047827	-0.001544	0.003505	-0.092302 	-0.001441	0.007324
0.112000	0.122070	0.061035	0.488281	-0.057480	-0.076641	9.752520	0.000000	0.000000	0.000000	16	-0.052753	-0.002407	0.003985	-0.097090 	-0.010178	0.008301
0.114000	0.122070	0.061035	0.488281	-0.057480	-0.076641	9.752520	0.000000	0.000000	0.000000	16	-0.057656	-0.004040	0.004514	-0.101782 	-0.018740	0.009277
0.116000	0.305176	0.061035	0.671387	-0.057480	0.000000	9.752520	0.000000	0.000000	0.000000	16	-0.062528	-0.005413	0.005125	-0.106381 	-0.017767	0.010620
0.118000	0.305176	0.061035	0.671387	-0.057480	0.000000	9.752520	0.000000	0.000000	0.000000	16	-0.067364	-0.006553	0.005808	-0.110888 	-0.016814	0.011963
0.120000	0.305176	0.061035	0.671387	-0.057480	0.000000	9.752520	0.000000	0.000000	0.000000	16	-0.072158	-0.007486	0.006558	-0.115305 	-0.015879	0.013306
0.122000	0.366211	0.244141	0.671387	-0.057480	0.000000	9.752520	0.000000	0.000000	0.000000	16	-0.076870	-0.008222	0.007367	-0.119274 	-0.014844	0.014648
0.124000	0.366211	0.244141	0.671387	-0.057480	0.000000	9.752520	0.000000	0.000000	0.000000	16	-0.081499	-0.008782	0.008230	-0.123164 	-0.013829	0.015991
0.126000	0.122070	0.427246	1.403809	-0.057480	0.000000	9.752520	0.000000	0.000000	0.000000	16	-0.086011	-0.009235	0.009286	-0.126617 	-0.013314	0.018799
0.128000	0.122070	0.427246	1.403809	-0.057480	0.000000	9.752520	0.000000	0.000000	0.000000	16	-0.090410	-0.009593	0.010518	-0.130002 	-0.012808	0.021606
0.130000	0.122070	0.427246	1.403809	-0.057480	0.000000	9.752520	0.000000	0.000000	0.000000	16	-0.094701	-0.009865	0.011908	-0.133318 	-0.012313	0.024414
0.132000	0.732422	0.366211	0.610352	-0.057480	0.000000	9.675879	0.000000	0.000000	0.000000	16	-0.098905	-0.009941	0.013281	-0.136742 	-0.010631	0.025635
0.134000	0.732422	0.366211	0.610352	-0.057480	0.000000	9.675879	0.000000	0.000000	0.000000	16	-0.103024	-0.009845	0.014638	-0.140097 	-0.008983	0.026855
0.136000	0.549316	0.122070	-0.305176	-0.057480	0.000000	9.752520	0.000000	0.000000	0.000000	16	-0.107103	-0.009634	0.015799	-0.143810 	-0.007726	0.026245
0.138000	0.549316	0.122070	-0.305176	-0.057480	0.000000	9.752520	0.000000	0.000000	0.000000	16	-0.111137	-0.009320	0.016782	-0.147448 	-0.006495	0.025635
0.140000	0.549316	0.122070	-0.305176	-0.057480	0.000000	9.752520	0.000000	0.000000	0.000000	16	-0.115125	-0.008917	0.017607	-0.151014 	-0.005289	0.025024
0.142000	-0.061035	0.061035	0.305176	-0.057480	0.000000	9.752520	0.000000	0.000000	0.000000	16	-0.119075	-0.008555	0.018409	-0.154628 	-0.005302	0.025635
0.144000	-0.061035	0.061035	0.305176	-0.057480	0.000000	9.752520	0.000000	0.000000	0.000000	16	-0.122985	-0.008231	0.019193	-0.158170 	-0.005316	0.026245
0.146000	-0.061035	0.061035	0.305176	-0.057480	0.000000	9.752520	0.000000	0.000000	0.000000	16	-0.126850	-0.007941	0.019959	-0.161641 	-0.005329	0.026855
0.148000	0.427246	0.122070	0.122070	0.019160	0.076641	9.829160	0.000000	0.000000	0.000000	16	-0.129759	-0.006692	0.020673	-0.155935 	0.004550	0.027100
0.150000	0.427246	0.122070	0.122070	0.019160	0.076641	9.829160	0.000000	0.000000	0.000000	16	-0.131817	-0.004600	0.021340	-0.150343 	0.014231	0.027344
0.152000	0.000000	-0.183105	-0.183105	0.019160	0.076641	9.829160	0.000000	0.000000	0.000000	17	-0.133182	-0.001852	0.021904	-0.145462 	0.022882	0.026978
0.154000	0.000000	-0.183105	-0.183105	0.019160	0.076641	9.829160	0.000000	0.000000	0.000000	17	-0.133931	0.001470	0.022375	-0.140678 	0.031359	0.026611
0.156000	0.000000	-0.183105	-0.183105	0.019160	0.076641	9.829160	0.000000	0.000000	0.000000	17	-0.134137	0.005289	0.022762	-0.135989 	0.039667	0.026245
0.158000	-0.244141	-0.244141	-0.915527	0.019160	0.076641	9.829160	0.000000	0.000000	0.000000	17	-0.133875	0.009493	0.022927	-0.131514 	0.047330	0.024414
0.160000	-0.244141	-0.244141	-0.915527	0.019160	0.076641	9.829160	0.000000	0.000000	0.000000	17	-0.133200	0.014028	0.022893	-0.127129 	0.054840	0.022583
0.162000	0.732422	0.000000	-1.464844	0.019160	0.076641	9.829160	0.000000	0.000000	0.000000	17	-0.132115	0.019037	0.022569	-0.122352 	0.064114	0.019653
0.164000	0.732422	0.000000	-1.464844	0.019160	0.076641	9.829160	0.000000	0.000000	0.000000	17	-0.130671	0.024453	0.021984	-0.117672 	0.073202	0.016724
0.166000	0.732422	0.000000	-1.464844	0.019160	0.076641	9.829160	0.000000	0.000000	0.000000	17	-0.128912	0.030219	0.021165	-0.113084 	0.082109	0.013794
0.168000	0.366211	-0.305176	-0.732422	0.019160	0.076641	9.829160	0.000000	0.000000	0.000000	17	-0.126940	0.036209	0.020282	-0.109187 	0.090120	0.012329
0.170000	0.366211	-0.305176	-0.732422	0.019160	0.076641	9.829160	0.000000	0.000000	0.000000	17	-0.124783	0.042385	0.019340	-0.105368 	0.097970	0.010864
0.172000	0.549316	-0.305176	-0.366211	0.019160	0.076641	9.829160	0.000000	0.000000	0.000000	17	-0.122467	0.048749	0.018419	-0.101625 	0.106022	0.010132
0.174000	0.549316	-0.305176	-0.366211	0.019160	0.076641	9.829160	0.000000	0.000000	0.000000	17	-0.120016	0.055265	0.017517	-0.097957 	0.113914	0.009399
0.176000	0.549316	-0.305176	-0.366211	0.019160	0.076641	9.829160	0.000000	0.000000	0.000000	17	-0.117450	0.061903	0.016632	-0.094362 	0.121647	0.008667
0.178000	0.732422	-0.305176	-0.122070	0.019160	0.076641	9.829160	0.000000	0.000000	0.000000	17	-0.114789	0.068672	0.015811	-0.090839 	0.129585	0.008423
0.180000	0.732422	-0.305176	-0.122070	0.019160	0.076641	9.829160	0.000000	0.000000	0.000000	17	-0.112049	0.075541	0.015048	-0.087387 	0.137364	0.008179
0.182000	0.793457	-0.366211	-0.061035	0.019160	0.076641	9.752520	0.000000	0.000000	0.000000	17	-0.109255	0.082504	0.014349	-0.084105 	0.145177	0.008057
0.184000	0.793457	-0.366211	-0.061035	0.019160	0.076641	9.752520	0.000000	0.000000	0.000000	17	-0.106418	0.089537	0.013707	-0.080890 	0.152834	0.007935
0.186000	0.793457	-0.366211	-0.061035	0.019160	0.076641	9.752520	0.000000	0.000000	0.000000	17	-0.103550	0.096617	0.013118	-0.077738 	0.160338	0.007812
0.188000	1.098633	-0.244141	-0.061035	-0.057480	0.076641	9.752520	0.000000	0.000000	0.000000	17	-0.101537	0.103785	0.012575	-0.083416 	0.168289	0.007690
0.190000	1.098633	-0.244141	-0.061035	-0.057480	0.076641	9.752520	0.000000	0.000000	0.000000	17	-0.100281	0.111014	0.012074	-0.088980 	0.176082	0.007568
0.192000	1.037598	-0.122070	-0.122070	-0.057480	0.000000	9.752520	0.000000	0.000000	0.000000	17	-0.099672	0.117372	0.011599	-0.094194 	0.174594	0.007324
0.194000	1.037598	-0.122070	-0.122070	-0.057480	0.000000	9.752520	0.000000	0.000000	0.000000	17	-0.099636	0.122949	0.011147	-0.099303 	0.173136	0.007080
0.196000	1.037598	-0.122070	-0.122070	-0.057480	0.000000	9.752520	0.000000	0.000000	0.000000	17	-0.100103	0.127825	0.010716	-0.104310 	0.171707	0.006836
0.198000	0.732422	0.000000	-0.061035	-0.057480	0.000000	9.675879	0.000000	0.000000	0.000000	17	-0.100996	0.132013	0.010316	-0.109032 	0.169708	0.006714
0.200000	0.732422	0.000000	-0.061035	-0.057480	0.000000	9.675879	0.000000	0.000000	0.000000	17	-0.102262	0.135587	0.009944	-0.113659 	0.167750	0.006592
0.202000	0.854492	-0.122070	0.000000	-0.057480	0.000000	9.675879	0.000000	0.000000	0.000000	17	-0.103879	0.138635	0.009608	-0.118432 	0.166070	0.006592
0.204000	0.854492	-0.122070	0.000000	-0.057480	0.000000	9.675879	0.000000	0.000000	0.000000	17	-0.105802	0.141214	0.009307	-0.123110 	0.164423	0.006592
0.206000	0.854492	-0.122070	0.000000	-0.057480	0.000000	9.675879	0.000000	0.000000	0.000000	17	-0.107992	0.143373	0.009035	-0.127695 	0.162809	0.006592
0.208000	0.915527	-0.061035	0.061035	-0.057480	0.000000	9.675879	0.000000	0.000000	0.000000	17	-0.110399	0.145171	0.008803	-0.132068 	0.161348	0.006714
0.210000	0.915527	-0.061035	0.061035	-0.057480	0.000000	9.675879	0.000000	0.000000	0.000000	17	-0.112995	0.146645	0.008606	-0.136354 	0.159915	0.006836
0.212000	0.915527	0.000000	0.427246	-0.057480	0.000000	9.675879	0.000000	0.000000	0.000000	17	-0.115739	0.147832	0.008515	-0.140435 	0.158511	0.007690
0.214000	0.915527	0.000000	0.427246	-0.057480	0.000000	9.675879	0.000000	0.000000	0.000000	17	-0.118608	0.148762	0.008518	-0.144433 	0.157135	0.008545
0.216000	0.915527	0.000000	0.427246	-0.057480	0.000000	9.675879	0.000000	0.000000	0.000000	17	-0.121583	0.149465	0.008606	-0.148352 	0.155787	0.009399
0.218000	0.976562	0.122070	0.305176	-0.057480	0.000000	9.752520	0.000000	0.000000	0.000000	17	-0.124614	0.149977	0.008746	-0.151900 	0.154585	0.010010
0.220000	0.976562	0.122070	0.305176	-0.057480	0.000000	9.752520	0.000000	0.000000	0.000000	17	-0.127691	0.150320	0.008934	-0.155377 	0.153408	0.010620
0.222000	0.305176	0.000000	-0.061035	0.019160	0.000000	9.752520	0.000000	0.000000	0.000000	17	-0.129923	0.150382	0.009090	-0.150018 	0.150938	0.010498
0.224000	0.305176	0.000000	-0.061035	0.019160	0.000000	9.752520	0.000000	0.000000	0.000000	17	-0.131408	0.150195	0.009219	-0.144766 	0.148517	0.010376
0.226000	0.305176	0.000000	-0.061035	0.019160	0.000000	9.752520	0.000000	0.000000	0.000000	17	-0.132229	0.149790	0.009322	-0.139619 	0.146145	0.010254
0.228000	-0.427246	-0.183105	-0.549316	0.019160	0.000000	9.752520	0.000000	0.000000	0.000000	17	-0.132499	0.149050	0.009306	-0.134935 	0.142385	0.009155
0.230000	-0.427246	-0.183105	-0.549316	0.019160	0.000000	9.752520	0.000000	0.000000	0.000000	17	-0.132284	0.148015	0.009181	-0.130343 	0.138700	0.008057
0.232000	-0.305176	-0.549316	-0.183105	0.019160	0.000000	9.752520	0.000000	0.000000	0.000000	17	-0.131712	0.146746	0.009032	-0.126562 	0.135327	0.007690
0.234000	-0.305176	-0.549316	-0.183105	0.019160	0.000000	9.752520	0.000000	0.000000	0.000000	17	-0.130826	0.145274	0.008861	-0.122856 	0.132023	0.007324
0.236000	-0.305176	-0.549316	-0.183105	0.019160	0.000000	9.752520	0.000000	0.000000	0.000000	17	-0.129666	0.143625	0.008671	-0.119224 	0.128784	0.006958
0.238000	-0.244141	-0.610352	0.000000	0.019160	0.000000	9.752520	0.000000	0.000000	0.000000	17	-0.128278	0.141835	0.008499	-0.115785 	0.125730	0.006958
0.240000	-0.976562	-0.366211	-0.427246	0.019160	0.000000	9.752520	0.000000	0.000000	0.000000	16	-0.126643	0.139782	0.008260	-0.111935 	0.121301	0.006104
0.242000	-1.159668	-0.305176	-0.671387	0.019160	0.000000	9.752520	0.000000	0.000000	0.000000	16	-0.124783	0.137464	0.007910	-0.108043 	0.116602	0.004761
0.244000	-1.098633	-0.366211	-0.854492	0.019160	0.000000	9.752520	0.000000	0.000000	0.000000	16	-0.122740	0.134929	0.007424	-0.104349 	0.112117	0.003052
0.246000	-1.098633	-0.366211	-0.854492	0.019160	0.000000	9.752520	0.000000	0.000000	0.000000	16	-0.120539	0.132208	0.006816	-0.100728 	0.107721	0.001343
0.248000	-0.976562	-0.366211	-0.671387	0.019160	0.000000	9.752520	0.000000	0.000000	0.000000	16	-0.118203	0.129353	0.006134	-0.097180 	0.103653	0.000000
0.250000	-0.976562	-0.366211	-0.671387	0.019160	0.000000	9.752520	0.000000	0.000000	0.000000	16	-0.115753	0.126384	0.005387	-0.093703 	0.099666	-0.001343
0.252000	-0.976562	-0.366211	-0.671387	0.019160	0.000000	9.752520	0.000000	0.000000	0.000000	16	-0.113207	0.123321	0.004579	-0.090295 	0.095758	-0.002686
0.254000	-1.098633	-0.244141	-0.671387	-0.057480	-0.076641	9.752520	0.000000	0.000000	0.000000	16	-0.111459	0.119258	0.003719	-0.095722 	0.082685	-0.004028
0.256000	-1.098633	-0.244141	-0.671387	-0.057480	-0.076641	9.752520	0.000000	0.000000	0.000000	16	-0.110417	0.114319	0.002810	-0.101040 	0.069872	-0.005371
0.258000	-0.305176	-0.305176	-0.671387	-0.057480	-0.076641	9.675879	0.000000	0.000000	0.000000	16	-0.110017	0.108767	0.001857	-0.106424 	0.058800	-0.006714
0.260000	-0.305176	-0.305176	-0.671387	-0.057480	-0.076641	9.675879	0.000000	0.000000	0.000000	16	-0.110186	0.102686	0.000866	-0.111701 	0.047950	-0.008057
0.262000	0.549316	-0.183105	-0.244141	-0.057480	-0.076641	9.752520	0.000000	0.000000	0.000000	16	-0.110825	0.096323	-0.000075	-0.116580 	0.039062	-0.008545
0.264000	0.549316	-0.183105	-0.244141	-0.057480	-0.076641	9.752520	0.000000	0.000000	0.000000	16	-0.111879	0.089726	-0.000971	-0.121361 	0.030353	-0.009033
0.266000	0.549316	-0.183105	-0.244141	-0.057480	-0.076641	9.752520	0.000000	0.000000	0.000000	16	-0.113296	0.082935	-0.001826	-0.126047 	0.021817	-0.009521
0.268000	0.793457	-0.244141	0.244141	-0.057480	0.000000	9.752520	0.000000	0.000000	0.000000	16	-0.115042	0.076935	-0.002547	-0.130758 	0.022936	-0.009033
0.270000	0.793457	-0.244141	0.244141	-0.057480	0.000000	9.752520	0.000000	0.000000	0.000000	16	-0.117075	0.071645	-0.003147	-0.135376 	0.024032	-0.008545
0.272000	0.427246	-0.305176	0.549316	0.019160	0.000000	9.752520	0.000000	0.000000	0.000000	16	-0.118469	0.066919	-0.003577	-0.131015 	0.024389	-0.007446
0.274000	0.427246	-0.305176	0.549316	0.019160	0.000000	9.752520	0.000000	0.000000	0.000000	16	-0.119296	0.062701	-0.003854	-0.126741 	0.024739	-0.006348
0.276000	0.427246	-0.305176	0.549316	0.019160	0.000000	9.752520	0.000000	0.000000	0.000000	16	-0.119622	0.058939	-0.003993	-0.122553 	0.025081	-0.005249
0.278000	-0.122070	0.244141	0.366211	0.019160	0.076641	9.752520	0.000000	0.000000	0.000000	16	-0.119397	0.056380	-0.004046	-0.117372 	0.033346	-0.004517
0.280000	-0.122070	0.244141	0.366211	0.019160	0.076641	9.752520	0.000000	0.000000	0.000000	16	-0.118687	0.054886	-0.004019	-0.112295 	0.041445	-0.003784
0.282000	-0.671387	0.915527	0.000000	-0.057480	0.076641	9.752520	0.000000	0.000000	0.000000	16	-0.118319	0.054228	-0.003996	-0.115009 	0.048305	-0.003784
0.284000	-0.671387	0.915527	0.000000	-0.057480	0.076641	9.752520	0.000000	0.000000	0.000000	16	-0.118254	0.054308	-0.003975	-0.117668 	0.055028	-0.003784
0.286000	-0.671387	0.915527	0.000000	-0.057480	0.076641	9.752520	0.000000	0.000000	0.000000	16	-0.118456	0.055039	-0.003956	-0.120274 	0.061617	-0.003784
0.288000	-0.061035	-0.366211	-0.244141	-0.057480	0.000000	9.752520	0.000000	0.000000	0.000000	16	-0.119144	0.055562	-0.003987	-0.125340 	0.060265	-0.004272
0.290000	-0.061035	-0.366211	-0.244141	-0.057480	0.000000	9.752520	0.000000	0.000000	0.000000	16	-0.120260	0.055900	-0.004065	-0.130305 	0.058940	-0.004761
0.292000	0.183105	-0.244141	0.915527	0.019160	0.076641	9.829160	0.000000	0.000000	0.000000	16	-0.120829	0.057015	-0.003951	-0.125944 	0.067055	-0.002930
0.294000	0.183105	-0.244141	0.915527	0.019160	0.076641	9.829160	0.000000	0.000000	0.000000	16	-0.120913	0.058814	-0.003666	-0.121670 	0.075008	-0.001099
0.296000	0.183105	-0.244141	0.915527	0.019160	0.076641	9.829160	0.000000	0.000000	0.000000	16	-0.120570	0.061213	-0.003226	-0.117481 	0.082802	0.000732
0.298000	-0.610352	0.305176	0.793457	0.019160	0.076641	9.829160	0.000000	0.000000	0.000000	16	-0.119743	0.063980	-0.002672	-0.112300 	0.088885	0.002319
0.300000	-0.610352	0.305176	0.793457	0.019160	0.076641	9.829160	0.000000	0.000000	0.000000	16	-0.118491	0.067067	-0.002014	-0.107222 	0.094846	0.003906
0.302000	-0.915527	0.244141	-0.183105	0.019160	0.076641	9.829160	0.000000	0.000000	0.000000	16	-0.116878	0.070369	-0.001458	-0.102365 	0.100089	0.003540
0.304000	-0.915527	0.244141	-0.183105	0.019160	0.076641	9.829160	0.000000	0.000000	0.000000	16	-0.114951	0.073855	-0.000995	-0.097606 	0.105228	0.003174
0.306000	-0.915527	0.244141	-0.183105	0.019160	0.076641	9.829160	0.000000	0.000000	0.000000	16	-0.112750	0.077496	-0.000615	-0.092941 	0.110264	0.002808
0.308000	-0.305176	-0.305176	0.000000	0.019160	0.076641	9.752520	0.000000	0.000000	0.000000	16	-0.110418	0.081393	-0.000273	-0.089429 	0.116466	0.002808
0.310000	-0.305176	-0.305176	0.000000	0.019160	0.076641	9.752520	0.000000	0.000000	0.000000	16	-0.107975	0.085508	0.000035	-0.085987 	0.122544	0.002808
0.312000	0.305176	0.061035	0.305176	0.019160	0.000000	9.752520	0.000000	0.000000	0.000000	16	-0.105367	0.089026	0.000374	-0.081897 	0.120691	0.003418
0.314000	0.305176	0.061035	0.305176	0.019160	0.000000	9.752520	0.000000	0.000000	0.000000	16	-0.102619	0.092011	0.000739	-0.077888 	0.118876	0.004028
0.316000	0.305176	0.061035	0.305176	0.019160	0.000000	9.752520	0.000000	0.000000	0.000000	16	-0.099753	0.094520	0.001129	-0.073959 	0.117096	0.004639
0.318000	-0.244141	0.793457	0.061035	0.019160	0.000000	9.752520	0.000000	0.000000	0.000000	16	-0.096645	0.096495	0.001492	-0.068673 	0.114276	0.004761
0.320000	-0.244141	0.793457	0.061035	0.019160	0.000000	9.752520	0.000000	0.000000	0.000000	16	-0.093330	0.097997	0.001831	-0.063493 	0.111512	0.004883
0.322000	-0.976562	0.000000	-0.122070	-0.057480	0.000000	9.752520	0.000000	0.000000	0.000000	16	-0.090895	0.098934	0.002112	-0.068977 	0.107368	0.004639
0.324000	-0.976562	0.000000	-0.122070	-0.057480	0.000000	9.752520	0.000000	0.000000	0.000000	16	-0.089240	0.099371	0.002340	-0.074352 	0.103306	0.004395
0.326000	-0.976562	0.000000	-0.122070	-0.057480	0.000000	9.752520	0.000000	0.000000	0.000000	16	-0.088278	0.099367	0.002521	-0.079619 	0.099326	0.004150
0.328000	-0.610352	0.122070	-0.122070	0.019160	0.000000	9.752520	0.000000	0.000000	0.000000	16	-0.087004	0.099044	0.002660	-0.075536 	0.096143	0.003906
0.330000	-0.610352	0.122070	-0.122070	0.019160	0.000000	9.752520	0.000000	0.000000	0.000000	16	-0.085457	0.098442	0.002760	-0.071535 	0.093024	0.003662
0.332000	-1.159668	0.244141	-0.061035	-0.057480	0.000000	9.752520	0.000000	0.000000	0.000000	16	-0.084549	0.097487	0.002838	-0.076379 	0.088891	0.003540
0.334000	-1.159668	0.244141	-0.061035	-0.057480	0.000000	9.752520	0.000000	0.000000	0.000000	16	-0.084207	0.096222	0.002896	-0.081127 	0.084840	0.003418
0.336000	-1.159668	0.244141	-0.061035	-0.057480	0.000000	9.752520	0.000000	0.000000	0.000000	16	-0.084364	0.094687	0.002936	-0.085780 	0.080870	0.003296
0.338000	-0.976562	0.122070	0.000000	-0.057480	0.000000	9.752520	0.000000	0.000000	0.000000	16	-0.084986	0.092952	0.002972	-0.090580 	0.077339	0.003296
0.340000	-0.976562	0.122070	0.000000	-0.057480	0.000000	9.752520	0.000000	0.000000	0.000000	16	-0.086016	0.091045	0.003004	-0.095283 	0.073878	0.003296
0.342000	-0.305176	0.000000	0.000000	-0.057480	0.000000	9.675879	0.000000	0.000000	0.000000	16	-0.087433	0.089121	0.003034	-0.100185 	0.071802	0.003296
0.344000	-0.305176	0.000000	0.000000	-0.057480	0.000000	9.675879	0.000000	0.000000	0.000000	16	-0.089188	0.087185	0.003060	-0.104988 	0.069768	0.003296
0.346000	-0.305176	0.000000	0.000000	-0.057480	0.000000	9.675879	0.000000	0.000000	0.000000	16	-0.091239	0.085244	0.003083	-0.109696 	0.067774	0.003296
0.348000	0.061035	-0.366211	0.244141	0.019160	0.000000	9.752520	0.000000	0.000000	0.000000	16	-0.092712	0.083374	0.003153	-0.105969 	0.066539	0.003784
0.350000	0.061035	-0.366211	0.244141	0.019160	0.000000	9.752520	0.000000	0.000000	0.000000	16	-0.093672	0.081569	0.003265	-0.102316 	0.065327	0.004272
0.352000	0.000000	-0.122070	-0.122070	0.019160	0.000000	9.752520	0.000000	0.000000	0.000000	16	-0.094131	0.079814	0.003342	-0.098257 	0.064021	0.004028
0.354000	0.000000	-0.122070	-0.122070	0.019160	0.000000	9.752520	0.000000	0.000000	0.000000	16	-0.094146	0.078107	0.003386	-0.094280 	0.062740	0.003784
0.356000	0.000000	-0.122070	-0.122070	0.019160	0.000000	9.752520	0.000000	0.000000	0.000000	16	-0.093769	0.076445	0.003401	-0.090382 	0.061486	0.003540
0.358000	-0.183105	-0.061035	0.122070	-0.057480	0.000000	9.752520	0.000000	0.000000	0.000000	16	-0.093937	0.074790	0.003440	-0.095448 	0.059897	0.003784
0.360000	-0.183105	-0.061035	0.122070	-0.057480	0.000000	9.752520	0.000000	0.000000	0.000000	16	-0.094585	0.073145	0.003498	-0.100413 	0.058340	0.004028
0.362000	-0.183105	-0.061035	0.122070	-0.057480	0.000000	9.752520	0.000000	0.000000	0.000000	16	-0.095654	0.071512	0.003576	-0.105278 	0.056814	0.004272
0.364000	-0.244141	-0.122070	0.000000	0.019160	0.000000	9.752520	0.000000	0.000000	0.000000	16	-0.096205	0.069881	0.003646	-0.101161 	0.055200	0.004272
0.366000	-0.244141	-0.122070	0.000000	0.019160	0.000000	9.752520	0.000000	0.000000	0.000000	16	-0.096297	0.068254	0.003708	-0.097125 	0.053617	0.004272
0.368000	-0.366211	-0.244141	-0.366211	0.019160	0.000000	9.752520	0.000000	0.000000	0.000000	15	-0.096008	0.066612	0.003691	-0.093410 	0.051827	0.003540
0.370000	-0.366211	-0.244141	-0.366211	0.019160	0.000000	9.752520	0.000000	0.000000	0.000000	15	-0.095384	0.064958	0.003603	-0.089769 	0.050073	0.002808
0.372000	-0.366211	-0.244141	-0.366211	0.019160	0.000000	9.752520	0.000000	0.000000	0.000000	15	-0.094466	0.063297	0.003450	-0.086201 	0.048354	0.002075
0.374000	-0.427246	-0.061035	-0.427246	0.019160	0.000000	9.752520	0.000000	0.000000	0.000000	15	-0.093254	0.061622	0.003227	-0.082345 	0.046549	0.001221
0.376000	-0.427246	-0.061035	-0.427246	0.019160	0.000000	9.752520	0.000000	0.000000	0.000000	15	-0.091785	0.059938	0.002941	-0.078566 	0.044781	0.000366
0.378000	-0.610352	-0.244141	-0.061035	0.019160	0.000000	9.752520	0.000000	0.000000	0.000000	15	-0.090129	0.058213	0.002671	-0.075222 	0.042689	0.000244
0.380000	-0.610352	-0.244141	-0.061035	0.019160	0.000000	9.752520	0.000000	0.000000	0.000000	15	-0.088310	0.056456	0.002417	-0.071945 	0.040639	0.000122
0.382000	-0.610352	-0.244141	-0.061035	0.019160	0.000000	9.752520	0.000000	0.000000	0.000000	15	-0.086353	0.054673	0.002175	-0.068733 	0.038630	0.000000
0.384000	-0.671387	-0.366211	0.061035	0.019160	0.000000	9.752520	0.000000	0.000000	0.000000	15	-0.084300	0.052860	0.001970	-0.065825 	0.036541	0.000122
0.386000	-0.671387	-0.366211	0.061035	0.019160	0.000000	9.752520	0.000000	0.000000	0.000000	15	-0.082167	0.051023	0.001797	-0.062975 	0.034494	0.000244
0.388000	-0.366211	-0.366211	0.244141	0.019160	0.000000	9.752520	0.000000	0.000000	0.000000	15	-0.079969	0.049230	0.001691	-0.060182 	0.033087	0.000732
0.390000	-0.366211	-0.366211	0.244141	0.019160	0.000000	9.752520	0.000000	0.000000	0.000000	15	-0.077716	0.047478	0.001644	-0.057444 	0.031707	0.001221
0.392000	-0.366211	-0.366211	0.244141	0.019160	0.000000	9.752520	0.000000	0.000000	0.000000	15	-0.075421	0.045765	0.001650	-0.054762 	0.030355	0.001709
0.394000	-0.244141	-0.366211	0.183105	-0.057480	0.000000	9.752520	0.000000	0.000000	0.000000	15	-0.073993	0.044116	0.001693	-0.061139 	0.029270	0.002075
0.396000	-0.244141	-0.366211	0.183105	-0.057480	0.000000	9.752520	0.000000	0.000000	0.000000	15	-0.073332	0.042525	0.001768	-0.067388 	0.028206	0.002441
0.398000	-0.305176	-0.244141	-0.122070	-0.057480	0.000000	9.752520	0.000000	0.000000	0.000000	15	-0.073326	0.040977	0.001810	-0.073272 	0.027043	0.002197
0.400000	-0.305176	-0.244141	-0.122070	-0.057480	0.000000	9.752520	0.000000	0.000000	0.000000	15	-0.073898	0.039469	0.001825	-0.079040 	0.025904	0.001953
0.402000	-0.305176	-0.244141	-0.122070	-0.057480	0.000000	9.752520	0.000000	0.000000	0.000000	15	-0.074977	0.038001	0.001813	-0.084691 	0.024788	0.001709
0.404000	-0.305176	-0.244141	0.061035	-0.057480	-0.076641	9.752520	0.000000	0.000000	0.000000	15	-0.076502	0.035670	0.001815	-0.090230 	0.014689	0.001831
0.406000	-0.305176	-0.244141	0.061035	-0.057480	-0.076641	9.752520	0.000000	0.000000	0.000000	15	-0.078418	0.032582	0.001829	-0.095658 	0.004792	0.001953
0.408000	0.183105	-0.183105	-0.061035	-0.057480	-0.076641	9.752520	0.000000	0.000000	0.000000	15	-0.080662	0.028929	0.001829	-0.100857 	-0.003950	0.001831
0.410000	0.183105	-0.183105	-0.061035	-0.057480	-0.076641	9.752520	0.000000	0.000000	0.000000	15	-0.083191	0.024784	0.001817	-0.105953 	-0.012517	0.001709
0.412000	0.183105	-0.183105	-0.061035	-0.057480	-0.076641	9.752520	0.000000	0.000000	0.000000	15	-0.085966	0.020215	0.001794	-0.110946 	-0.020913	0.001587
0.414000	0.183105	-0.244141	-0.183105	-0.057480	-0.076641	9.752520	0.000000	0.000000	0.000000	16	-0.088966	0.015279	0.001737	-0.115960 	-0.029141	0.001221
0.416000	0.183105	-0.244141	-0.183105	-0.057480	-0.076641	9.752520	0.000000	0.000000	0.000000	16	-0.092156	0.010031	0.001648	-0.120873 	-0.037205	0.000854
0.418000	0.000000	-0.122070	-0.061035	-0.057480	-0.076641	9.752520	0.000000	0.000000	0.000000	16	-0.095486	0.004481	0.001557	-0.125449 	-0.045466	0.000732
0.420000	0.000000	-0.122070	-0.061035	-0.057480	-0.076641	9.752520	0.000000	0.000000	0.000000	16	-0.098930	-0.001323	0.001462	-0.129933 	-0.053562	0.000610
0.422000	0.000000	-0.122070	-0.061035	-0.057480	-0.076641	9.752520	0.000000	0.000000	0.000000	16	-0.102470	-0.007340	0.001365	-0.134327 	-0.061495	0.000488
0.424001	0.427246	0.000000	0.061035	-0.057480	0.000000	9.752520	0.000000	0.000000	0.000000	16	-0.106063	-0.012549	0.001289	-0.138395 	-0.059428	0.000610
0.426001	0.427246	0.000000	0.061035	-0.057480	0.000000	9.752520	0.000000	0.000000	0.000000	16	-0.109694	-0.017034	0.001234	-0.142381 	-0.057402	0.000732
0.428001	0.427246	0.061035	0.122070	-0.057480	0.000000	9.752520	0.000000	0.000000	0.000000	16	-0.113342	-0.020873	0.001208	-0.146168 	-0.055417	0.000977
0.430001	0.427246	0.061035	0.122070	-0.057480	0.000000	9.752520	0.000000	0.000000	0.000000	16	-0.116995	-0.024133	0.001209	-0.149879 	-0.053471	0.001221
0.432001	0.427246	0.061035	0.122070	-0.057480	0.000000	9.752520	0.000000	0.000000	0.000000	16	-0.120647	-0.026876	0.001235	-0.153516 	-0.051564	0.001465
0.434001	0.305176	-0.061035	0.183105	-0.057480	0.000000	9.752520	0.000000	0.000000	0.000000	16	-0.124315	-0.029182	0.001294	-0.157319 	-0.049935	0.001831
0.436001	0.305176	-0.061035	0.183105	-0.057480	0.000000	9.752520	0.000000	0.000000	0.000000	16	-0.127988	-0.031097	0.001385	-0.161046 	-0.048338	0.002197
0.438001	0.549316	0.122070	0.061035	0.019160	0.000000	9.752520	0.000000	0.000000	0.000000	16	-0.130722	-0.032617	0.001478	-0.155335 	-0.046294	0.002319
0.440001	0.549316	0.122070	0.061035	0.019160	0.000000	9.752520	0.000000	0.000000	0.000000	16	-0.132624	-0.033784	0.001574	-0.149737 	-0.044292	0.002441
0.442001	0.549316	0.122070	0.061035	0.019160	0.000000	9.752520	0.000000	0.000000	0.000000	16	-0.133787	-0.034639	0.001673	-0.144252 	-0.042329	0.002563
0.444001	0.610352	0.122070	0.488281	0.019160	0.000000	9.752520	0.000000	0.000000	0.000000	16	-0.134296	-0.035204	0.001860	-0.138876 	-0.040287	0.003540
0.446001	0.610352	0.122070	0.488281	0.019160	0.000000	9.752520	0.000000	0.000000	0.000000	16	-0.134227	-0.035512	0.002126	-0.133608 	-0.038285	0.004517
0.448001	0.305176	-0.122070	0.366211	0.019160	0.000000	9.752520	0.000000	0.000000	0.000000	16	-0.133697	-0.035653	0.002438	-0.128924 	-0.036921	0.005249
0.450001	0.305176	-0.122070	0.366211	0.019160	0.000000	9.752520	0.000000	0.000000	0.000000	16	-0.132760	-0.035646	0.002792	-0.124333 	-0.035584	0.005981
0.452001	0.305176	-0.122070	0.366211	0.019160	0.000000	9.752520	0.000000	0.000000	0.000000	16	-0.131468	-0.035509	0.003185	-0.119834 	-0.034274	0.006714
0.454001	0.183105	0.122070	-0.122070	0.019160	0.000000	9.752520	0.000000	0.000000	0.000000	16	-0.129816	-0.035281	0.003513	-0.114947 	-0.033230	0.006470
0.456001	0.183105	0.122070	-0.122070	0.019160	0.000000	9.752520	0.000000	0.000000	0.000000	16	-0.127850	-0.034973	0.003784	-0.110158 	-0.032206	0.006226
0.458001	0.183105	-0.061035	0.122070	0.019160	0.000000	9.752520	0.000000	0.000000	0.000000	17	-0.125647	-0.034596	0.004053	-0.105823 	-0.031203	0.006470
0.460001	0.183105	-0.061035	0.122070	0.019160	0.000000	9.752520	0.000000	0.000000	0.000000	17	-0.123240	-0.034159	0.004319	-0.101574 	-0.030221	0.006714
0.462001	0.183105	-0.061035	0.122070	0.019160	0.000000	9.752520	0.000000	0.000000	0.000000	17	-0.120657	-0.033669	0.004583	-0.097411 	-0.029257	0.006958
0.464001	0.244141	-0.244141	-0.122070	0.019160	0.000000	9.752520	0.000000	0.000000	0.000000	17	-0.117960	-0.033121	0.004796	-0.093690 	-0.028194	0.006714
0.466001	0.244141	-0.244141	-0.122070	0.019160	0.000000	9.752520	0.000000	0.000000	0.000000	17	-0.115169	-0.032524	0.004963	-0.090044 	-0.027151	0.006470
0.468001	0.183105	0.000000	-0.122070	0.019160	0.000000	9.752520	0.000000	0.000000	0.000000	17	-0.112251	-0.031897	0.005090	-0.085991 	-0.026249	0.006226
0.470001	0.183105	0.000000	-0.122070	0.019160	0.000000	9.752520	0.000000	0.000000	0.000000	17	-0.109228	-0.031244	0.005179	-0.082020 	-0.025365	0.005981
0.472001	0.183105	0.000000	-0.122070	0.019160	0.000000	9.752520	0.000000	0.000000	0.000000	17	-0.106118	-0.030569	0.005235	-0.078128 	-0.024499	0.005737
0.474001	0.000000	-0.366211	-0.061035	0.019160	0.000000	9.752520	0.000000	0.000000	0.000000	17	-0.103009	-0.029913	0.005273	-0.075032 	-0.024009	0.005615
0.476001	0.000000	-0.366211	-0.061035	0.019160	0.000000	9.752520	0.000000	0.000000	0.000000	17	-0.099908	-0.029275	0.005295	-0.071998 	-0.023529	0.005493
0.478001	0.366211	-0.305176	-0.549316	0.019160	0.000000	9.752520	0.000000	0.000000	0.000000	17	-0.096808	-0.028581	0.005205	-0.068905 	-0.022341	0.004395
0.480001	0.366211	-0.305176	-0.549316	0.019160	0.000000	9.752520	0.000000	0.000000	0.000000	17	-0.093714	-0.027841	0.005014	-0.065873 	-0.021176	0.003296
0.482001	0.366211	-0.305176	-0.549316	0.019160	0.000000	9.752520	0.000000	0.000000	0.000000	17	-0.090633	-0.027060	0.004732	-0.062903 	-0.020035	0.002197
0.484001	0.061035	-0.183105	-0.427246	0.019160	0.000000	9.752520	0.000000	0.000000	0.000000	17	-0.087545	-0.026306	0.004393	-0.059752 	-0.019514	0.001343
0.486001	0.061035	-0.183105	-0.427246	0.019160	0.000000	9.752520	0.000000	0.000000	0.000000	17	-0.084457	-0.025575	0.004003	-0.056665 	-0.019005	0.000488
0.488001	0.183105	-0.061035	-0.244141	0.019160	0.000000	9.752520	0.000000	0.000000	0.000000	17	-0.081351	-0.024844	0.003602	-0.053400 	-0.018266	0.000000
0.490001	0.183105	-0.061035	-0.244141	0.019160	0.000000	9.752520	0.000000	0.000000	0.000000	17	-0.078236	-0.024114	0.003193	-0.050200 	-0.017541	-0.000488
0.492001	0.183105	-0.061035	-0.244141	0.019160	0.000000	9.752520	0.000000	0.000000	0.000000	17	-0.075119	-0.023386	0.002776	-0.047064 	-0.016832	-0.000977
0.494001	0.122070	-0.122070	-0.183105	0.019160	0.000000	9.752520	0.000000	0.000000	0.000000	17	-0.072018	-0.022673	0.002364	-0.044111 	-0.016256	-0.001343
0.496001	0.122070	-0.122070	-0.183105	0.019160	0.000000	9.752520	0.000000	0.000000	0.000000	17	-0.068938	-0.021975	0.001957	-0.041216 	-0.015691	-0.001709
0.498001	-0.061035	-0.122070	-0.183105	0.019160	0.000000	9.752520	0.000000	0.000000	0.000000	17	-0.065882	-0.021327	0.001554	-0.038380 	-0.015497	-0.002075
0.500001	-0.061035	-0.122070	-0.183105	0.019160	0.000000	9.752520	0.000000	0.000000	0.000000	17	-0.062854	-0.020725	0.001154	-0.035600 	-0.015307	-0.002441
0.502001	-0.061035	-0.122070	-0.183105	0.019160	0.000000	9.752520	0.000000	0.000000	0.000000	17	-0.059856	-0.020165	0.000758	-0.032876 	-0.015120	-0.002808
0.504001	0.061035	-0.122070	-0.244141	0.019160	0.000000	9.752520	0.000000	0.000000	0.000000	17	-0.056891	-0.019618	0.000353	-0.030206 	-0.014698	-0.003296
0.506001	0.061035	-0.122070	-0.244141	0.019160	0.000000	9.752520	0.000000	0.000000	0.000000	17	-0.053961	-0.019085	-0.000061	-0.027590 	-0.014285	-0.003784
0.508001	0.061035	-0.183105	-0.061035	0.019160	0.000000	9.752520	0.000000	0.000000	0.000000	17	-0.051080	-0.018564	-0.000445	-0.025146 	-0.013879	-0.003906
0.510001	0.061035	-0.183105	-0.061035	0.019160	0.000000	9.752520	0.000000	0.000000	0.000000	17	-0.048247	-0.018056	-0.000804	-0.022751 	-0.013482	-0.004028
0.512001	0.061035	-0.183105	-0.061035	0.019160	0.000000	9.752520	0.000000	0.000000	0.000000	17	-0.045462	-0.017560	-0.001138	-0.020403 	-0.013093	-0.004150
0.514000	0.122070	-0.122070	-0.061035	0.019160	0.000000	9.752520	0.000000	0.000000	0.000000	17	-0.042714	-0.017063	-0.001452	-0.017983 	-0.012592	-0.004272
0.516000	0.122070	-0.122070	-0.061035	0.019160	0.000000	9.752520	0.000000	0.000000	0.000000	17	-0.040004	-0.016567	-0.001746	-0.015611 	-0.012101	-0.004395
0.518000	0.183105	-0.061035	-0.061035	0.019160	0.000000	9.752520	0.000000	0.000000	0.000000	17	-0.037320	-0.016060	-0.002023	-0.013167 	-0.011500	-0.004517
0.520000	0.183105	-0.061035	-0.061035	0.019160	0.000000	9.752520	0.000000	0.000000	0.000000	17	-0.034666	-0.015545	-0.002285	-0.010772 	-0.010911	-0.004639
0.522000	0.183105	-0.061035	-0.061035	0.019160	0.000000	9.752520	0.000000	0.000000	0.000000	17	-0.032041	-0.015024	-0.002532	-0.008425 	-0.010334	-0.004761
0.524000	-0.061035	0.183105	-0.122070	0.019160	0.000000	9.752520	0.000000	0.000000	0.000000	17	-0.029402	-0.014546	-0.002780	-0.005646 	-0.010247	-0.005005
0.526000	-0.061035	0.183105	-0.122070	0.019160	0.000000	9.752520	0.000000	0.000000	0.000000	17	-0.026754	-0.014108	-0.003027	-0.002923 	-0.010161	-0.005249
0.528000	0.000000	0.183105	-0.061035	0.019160	0.000000	9.752520	0.000000	0.000000	0.000000	17	-0.024104	-0.013693	-0.003261	-0.000254 	-0.009958	-0.005371
0.530000	0.000000	0.183105	-0.061035	0.019160	0.000000	9.752520	0.000000	0.000000	0.000000	17	-0.021458	-0.013299	-0.003484	0.002361 	-0.009759	-0.005493
0.532000	0.000000	0.183105	-0.061035	0.019160	0.000000	9.752520	0.000000	0.000000	0.000000	17	-0.018819	-0.012926	-0.003697	0.004924 	-0.009564	-0.005615
0.534000	0.122070	0.061035	0.061035	0.019160	0.000000	9.752520	0.000000	0.000000	0.000000	17	-0.016218	-0.012547	-0.003877	0.007197 	-0.009133	-0.005493
0.536000	0.122070	0.061035	0.061035	0.019160	0.000000	9.752520	0.000000	0.000000	0.000000	17	-0.013654	-0.012163	-0.004026	0.009424 	-0.008711	-0.005371
0.538000	0.244141	0.122070	0.244141	-0.057480	0.000000	9.752520	0.000000	0.000000	0.000000	17	-0.012016	-0.011753	-0.004112	0.002720 	-0.008059	-0.004883
0.540000	0.244141	0.122070	0.244141	-0.057480	0.000000	9.752520	0.000000	0.000000	0.000000	17	-0.011199	-0.011319	-0.004140	-0.003849 	-0.007419	-0.004395
0.542000	0.244141	0.122070	0.244141	-0.057480	0.000000	9.752520	0.000000	0.000000	0.000000	17	-0.011108	-0.010867	-0.004117	-0.010287 	-0.006792	-0.003906
0.544000	0.244141	0.000000	0.122070	-0.057480	0.000000	9.752520	0.000000	0.000000	0.000000	17	-0.011681	-0.010398	-0.004071	-0.016835 	-0.006178	-0.003662
0.546000	0.244141	0.000000	0.122070	-0.057480	0.000000	9.752520	0.000000	0.000000	0.000000	17	-0.012838	-0.009915	-0.004006	-0.023252 	-0.005576	-0.003418
0.548000	0.244141	0.061035	0.366211	-0.057480	0.000000	9.752520	0.000000	0.000000	0.000000	16	-0.014496	-0.009422	-0.003874	-0.029422 	-0.004986	-0.002686
0.550000	0.244141	0.061035	0.366211	-0.057480	0.000000	9.752520	0.000000	0.000000	0.000000	16	-0.016593	-0.008921	-0.003682	-0.035468 	-0.004407	-0.001953
0.552000	0.244141	0.061035	0.366211	-0.057480	0.000000	9.752520	0.000000	0.000000	0.000000	16	-0.019073	-0.008413	-0.003436	-0.041393 	-0.003841	-0.001221
0.554000	0.366211	0.183105	0.366211	-0.057480	0.000000	9.752520	0.000000	0.000000	0.000000	16	-0.021862	-0.007876	-0.003141	-0.046960 	-0.003046	-0.000488
0.556000	0.366211	0.183105	0.366211	-0.057480	0.000000	9.752520	0.000000	0.000000	0.000000	16	-0.024917	-0.007315	-0.002802	-0.052416 	-0.002267	0.000244
0.558000	0.122070	0.183105	0.244141	-0.057480	0.000000	9.752520	0.000000	0.000000	0.000000	16	-0.028202	-0.006782	-0.002449	-0.057763 	-0.001983	0.000732
0.560000	0.122070	0.183105	0.244141	-0.057480	0.000000	9.752520	0.000000	0.000000	0.000000	16	-0.031682	-0.006274	-0.002082	-0.063003 	-0.001704	0.001221
0.562000	0.122070	0.183105	0.244141	-0.057480	0.000000	9.752520	0.000000	0.000000	0.000000	16	-0.035328	-0.005790	-0.001703	-0.068138 	-0.001431	0.001709
0.564000	0.488281	0.183105	0.305176	-0.057480	0.000000	9.675879	0.000000	0.000000	0.000000	16	-0.039117	-0.005255	-0.001301	-0.073224 	-0.000445	0.002319
0.566000	0.488281	0.183105	0.305176	-0.057480	0.000000	9.675879	0.000000	0.000000	0.000000	16	-0.043026	-0.004678	-0.000878	-0.078208 	0.000521	0.002930
0.568000	0.305176	-0.061035	0.427246	-0.057480	0.000000	9.752520	0.000000	0.000000	0.000000	16	-0.047075	-0.004099	-0.000411	-0.083517 	0.001109	0.003784
0.570000	0.305176	-0.061035	0.427246	-0.057480	0.000000	9.752520	0.000000	0.000000	0.000000	16	-0.051240	-0.003521	0.000094	-0.088721 	0.001685	0.004639
0.572000	0.305176	-0.061035	0.427246	-0.057480	0.000000	9.752520	0.000000	0.000000	0.000000	16	-0.055498	-0.002944	0.000633	-0.093820 	0.002249	0.005493
0.574000	0.122070	0.000000	0.305176	0.019160	0.000000	9.675879	0.000000	0.000000	0.000000	16	-0.058916	-0.002405	0.001180	-0.089674 	0.002443	0.006104
0.576000	0.122070	0.000000	0.305176	0.019160	0.000000	9.675879	0.000000	0.000000	0.000000	16	-0.061585	-0.001901	0.001734	-0.085612 	0.002634	0.006714
0.578000	0.000000	0.061035	0.122070	0.019160	0.000000	9.752520	0.000000	0.000000	0.000000	16	-0.063579	-0.001453	0.002256	-0.081528 	0.002581	0.006958
0.580000	0.000000	0.061035	0.122070	0.019160	0.000000	9.752520	0.000000	0.000000	0.000000	16	-0.064974	-0.001055	0.002751	-0.077527 	0.002529	0.007202
0.582000	0.000000	0.061035	0.122070	0.019160	0.000000	9.752520	0.000000	0.000000	0.000000	16	-0.065837	-0.000701	0.003220	-0.073605 	0.002479	0.007446
0.584000	0.122070	-0.061035	0.244141	0.019160	0.000000	9.752520	0.000000	0.000000	0.000000	16	-0.066254	-0.000364	0.003692	-0.070001 	0.002669	0.007935
0.586000	0.122070	-0.061035	0.244141	0.019160	0.000000	9.752520	0.000000	0.000000	0.000000	16	-0.066275	-0.000042	0.004165	-0.066470 	0.002854	0.008423
0.588000	0.122070	-0.061035	0.244141	0.019160	0.000000	9.752520	0.000000	0.000000	0.000000	16	-0.065949	0.000265	0.004640	-0.063009 	0.003037	0.008911
0.589999	0.000000	-0.061035	0.000000	0.019160	0.000000	9.675879	0.000000	0.000000	0.000000	16	-0.065314	0.000536	0.005067	-0.059599 	0.002976	0.008911
0.591999	0.000000	-0.061035	0.000000	0.019160	0.000000	9.675879	0.000000	0.000000	0.000000	16	-0.064408	0.000774	0.005451	-0.056257 	0.002916	0.008911
0.593999	0.000000	-0.122070	-0.061035	0.019160	0.000000	9.675879	0.000000	0.000000	0.000000	17	-0.063277	0.000983	0.005785	-0.053102 	0.002858	0.008789
0.595999	0.000000	-0.122070	-0.061035	0.019160	0.000000	9.675879	0.000000	0.000000	0.000000	17	-0.061951	0.001165	0.006073	-0.050010 	0.002801	0.008667
0.597999	-0.122070	-0.122070	-0.122070	0.019160	0.000000	9.752520	0.000000	0.000000	0.000000	17	-0.060455	0.001299	0.006308	-0.046998 	0.002506	0.008423
0.599999	-0.122070	-0.122070	-0.122070	0.019160	0.000000	9.752520	0.000000	0.000000	0.000000	17	-0.058814	0.001390	0.006495	-0.044046 	0.002216	0.008179
0.601999	-0.122070	-0.122070	-0.122070	0.019160	0.000000	9.752520	0.000000	0.000000	0.000000	17	-0.057048	0.001445	0.006639	-0.041153 	0.001933	0.007935
0.603999	-0.061035	-0.244141	-0.183105	0.019160	0.000000	9.675879	0.000000	0.000000	0.000000	17	-0.055197	0.001478	0.006732	-0.038539 	0.001774	0.007568
0.605999	-0.061035	-0.244141	-0.183105	0.019160	0.000000	9.675879	0.000000	0.000000	0.000000	17	-0.053275	0.001492	0.006779	-0.035978 	0.001619	0.007202
0.607999	-0.061035	-0.244141	-0.183105	0.019160	0.000000	9.675879	0.000000	0.000000	0.000000	17	-0.051295	0.001489	0.006785	-0.033467 	0.001467	0.006836
0.609999	-0.244141	-0.061035	-0.244141	0.019160	0.000000	9.752520	0.000000	0.000000	0.000000	17	-0.049232	0.001436	0.006741	-0.030666 	0.000959	0.006348
0.611999	-0.244141	-0.061035	-0.244141	0.019160	0.000000	9.752520	0.000000	0.000000	0.000000	17	-0.047101	0.001339	0.006653	-0.027921 	0.000462	0.005859
0.613999	-0.122070	-0.061035	-0.244141	0.019160	0.000000	9.752520	0.000000	0.000000	0.000000	17	-0.044914	0.001226	0.006525	-0.025231 	0.000213	0.005371
0.615999	-0.122070	-0.061035	-0.244141	0.019160	0.000000	9.752520	0.000000	0.000000	0.000000	17	-0.042682	0.001101	0.006360	-0.022595 	-0.000030	0.004883
0.617999	-0.122070	-0.061035	-0.244141	0.019160	0.000000	9.752520	0.000000	0.000000	0.000000	17	-0.040415	0.000964	0.006164	-0.020011 	-0.000269	0.004395
0.619999	-0.427246	-0.061035	-0.244141	0.019160	0.000000	9.752520	0.000000	0.000000	0.000000	17	-0.038121	0.000757	0.005938	-0.017479 	-0.001101	0.003906
0.621999	-0.427246	-0.061035	-0.244141	0.019160	0.000000	9.752520	0.000000	0.000000	0.000000	17	-0.035809	0.000490	0.005686	-0.014998 	-0.001916	0.003418
0.623999	-0.427246	0.000000	-0.366211	0.019160	0.000000	9.752520	0.000000	0.000000	0.000000	17	-0.033473	0.000169	0.005386	-0.012446 	-0.002715	0.002686
0.625999	-0.427246	0.000000	-0.366211	0.019160	0.000000	9.752520	0.000000	0.000000	0.000000	17	-0.031120	-0.000197	0.005043	-0.009946 	-0.003499	0.001953
0.627999	-0.427246	0.000000	-0.366211	0.019160	0.000000	9.752520	0.000000	0.000000	0.000000	17	-0.028757	-0.000604	0.004661	-0.007496 	-0.004266	0.001221
0.629999	-0.244141	0.122070	-0.183105	-0.057480	0.000000	9.752520	0.000000	0.000000	0.000000	17	-0.027268	-0.001010	0.004280	-0.013861 	-0.004659	0.000854
0.631999	-0.244141	0.122070	-0.183105	-0.057480	0.000000	9.752520	0.000000	0.000000	0.000000	17	-0.026551	-0.001413	0.003901	-0.020098 	-0.005045	0.000488
0.633999	-0.244141	0.122070	-0.183105	-0.057480	0.000000	9.752520	0.000000	0.000000	0.000000	17	-0.026517	-0.001814	0.003523	-0.026211 	-0.005422	0.000122
0.635999	-0.305176	0.000000	-0.183105	-0.057480	0.000000	9.752520	0.000000	0.000000	0.000000	17	-0.027109	-0.002224	0.003146	-0.032441 	-0.005912	-0.000244
0.637999	-0.305176	0.000000	-0.183105	-0.057480	0.000000	9.752520	0.000000	0.000000	0.000000	17	-0.028253	-0.002641	0.002771	-0.038546 	-0.006392	-0.000610
0.639999	-0.244141	0.061035	0.061035	-0.057480	0.000000	9.752520	0.000000	0.000000	0.000000	17	-0.029869	-0.003051	0.002445	-0.044410 	-0.006742	-0.000488
0.641999	-0.244141	0.061035	0.061035	-0.057480	0.000000	9.752520	0.000000	0.000000	0.000000	17	-0.031897	-0.003454	0.002164	-0.050156 	-0.007086	-0.000366
0.643999	-0.061035	0.000000	0.305176	-0.057480	0.000000	9.752520	0.000000	0.000000	0.000000	17	-0.034298	-0.003815	0.001972	-0.055907 	-0.007064	0.000244
0.645999	-0.061035	0.000000	0.305176	-0.057480	0.000000	9.752520	0.000000	0.000000	0.000000	17	-0.037023	-0.004138	0.001860	-0.061543 	-0.007042	0.000854
0.647999	-0.061035	0.000000	0.305176	-0.057480	0.000000	9.752520	0.000000	0.000000	0.000000	17	-0.040027	-0.004426	0.001820	-0.067066 	-0.007021	0.001465
0.649999	-0.183105	0.000000	0.244141	-0.057480	0.000000	9.752520	0.000000	0.000000	0.000000	17	-0.043272	-0.004708	0.001834	-0.072479 	-0.007240	0.001953
0.651999	-0.183105	0.000000	0.244141	-0.057480	0.000000	9.752520	0.000000	0.000000	0.000000	17	-0.046723	-0.004982	0.001894	-0.077783 	-0.007454	0.002441
0.653999	-0.488281	0.061035	-0.122070	-0.057480	0.000000	9.752520	0.000000	0.000000	0.000000	17	-0.050337	-0.005310	0.001925	-0.082862 	-0.008262	0.002197
0.655999	-0.488281	0.061035	-0.122070	-0.057480	0.000000	9.752520	0.000000	0.000000	0.000000	17	-0.054087	-0.005685	0.001928	-0.087839 	-0.009053	0.001953
0.657999	-0.488281	0.061035	-0.122070	-0.057480	0.000000	9.752520	0.000000	0.000000	0.000000	17	-0.057950	-0.006099	0.001906	-0.092717 	-0.009829	0.001709
0.659999	-0.427246	0.122070	0.061035	-0.057480	0.000000	9.752520	0.000000	0.000000	0.000000	17	-0.061893	-0.006536	0.001898	-0.097377 	-0.010470	0.001831
0.661999	-0.427246	0.122070	0.061035	-0.057480	0.000000	9.752520	0.000000	0.000000	0.000000	17	-0.065898	-0.006992	0.001904	-0.101944 	-0.011098	0.001953
0.663999	-0.366211	-0.061035	0.000000	-0.057480	0.000000	9.752520	0.000000	0.000000	0.000000	17	-0.069986	-0.007453	0.001909	-0.106779 	-0.011594	0.001953
0.665999	-0.366211	-0.061035	0.000000	-0.057480	0.000000	9.752520	0.000000	0.000000	0.000000	17	-0.074139	-0.007915	0.001913	-0.111517 	-0.012080	0.001953
0.667998	-0.366211	-0.061035	0.000000	-0.057480	0.000000	9.752520	0.000000	0.000000	0.000000	17	-0.078341	-0.008379	0.001917	-0.116161 	-0.012556	0.001953
0.669998	-0.488281	0.061035	-0.183105	-0.057480	0.000000	9.752520	0.000000	0.000000	0.000000	17	-0.082554	-0.008868	0.001884	-0.120472 	-0.013262	0.001587
0.671998	-0.488281	0.061035	-0.183105	-0.057480	0.000000	9.752520	0.000000	0.000000	0.000000	17	-0.086769	-0.009376	0.001818	-0.124697 	-0.013954	0.001221
0.673998	-0.488281	0.244141	-0.244141	0.019160	0.000000	9.829160	0.000000	0.000000	0.000000	17	-0.090041	-0.009902	0.001709	-0.119490 	-0.014632	0.000732
0.675998	-0.488281	0.244141	-0.244141	0.019160	0.000000	9.829160	0.000000	0.000000	0.000000	17	-0.092476	-0.010441	0.001563	-0.114388 	-0.015296	0.000244
0.677998	-0.488281	0.244141	-0.244141	0.019160	0.000000	9.829160	0.000000	0.000000	0.000000	17	-0.094167	-0.010992	0.001382	-0.109388 	-0.015947	-0.000244
0.679998	-0.488281	0.000000	-0.183105	0.019160	0.000000	9.829160	0.000000	0.000000	0.000000	17	-0.095247	-0.011551	0.001183	-0.104967 	-0.016585	-0.000610
0.681998	-0.488281	0.000000	-0.183105	0.019160	0.000000	9.829160	0.000000	0.000000	0.000000	17	-0.095785	-0.012117	0.000967	-0.100633 	-0.017211	-0.000977
0.683998	-0.549316	-0.061035	-0.244141	0.019160	0.000000	9.829160	0.000000	0.000000	0.000000	15	-0.095858	-0.012700	0.000724	-0.096507 	-0.017943	-0.001465
0.685998	-0.549316	-0.061035	-0.244141	0.019160	0.000000	9.829160	0.000000	0.000000	0.000000	15	-0.095518	-0.013296	0.000456	-0.092462 	-0.018661	-0.001953
0.687998	-0.549316	-0.061035	-0.244141	0.019160	0.000000	9.829160	0.000000	0.000000	0.000000	15	-0.094816	-0.013903	0.000166	-0.088499 	-0.019364	-0.002441
0.689998	-0.793457	0.061035	-0.244141	0.019160	0.000000	9.752520	0.000000	0.000000	0.000000	15	-0.093770	-0.014566	-0.000143	-0.084358 	-0.020532	-0.002930
0.691998	-0.793457	0.061035	-0.244141	0.019160	0.000000	9.752520	0.000000	0.000000	0.000000	15	-0.092423	-0.015277	-0.000471	-0.080300 	-0.021677	-0.003418
0.693998	-0.488281	0.061035	-0.183105	0.019160	0.000000	9.752520	0.000000	0.000000	0.000000	15	-0.090813	-0.015969	-0.000802	-0.076323 	-0.022200	-0.003784
0.695998	-0.488281	0.061035	-0.183105	0.019160	0.000000	9.752520	0.000000	0.000000	0.000000	15	-0.088974	-0.016644	-0.001137	-0.072425 	-0.022713	-0.004150
0.697998	-0.488281	0.061035	-0.183105	0.019160	0.000000	9.752520	0.000000	0.000000	0.000000	15	-0.086938	-0.017301	-0.001475	-0.068606 	-0.023216	-0.004517
0.699998	-0.244141	-0.061035	0.061035	0.019160	0.000000	9.752520	0.000000	0.000000	0.000000	15	-0.084754	-0.017894	-0.001767	-0.065102 	-0.023230	-0.004395
0.701998	-0.244141	-0.061035	0.061035	0.019160	0.000000	9.752520	0.000000	0.000000	0.000000	15	-0.082445	-0.018429	-0.002017	-0.061668 	-0.023244	-0.004272
0.703998	-0.122070	0.061035	0.183105	0.019160	0.000000	9.752520	0.000000	0.000000	0.000000	15	-0.080007	-0.018888	-0.002206	-0.058064 	-0.023019	-0.003906
0.705998	-0.122070	0.061035	0.183105	0.019160	0.000000	9.752520	0.000000	0.000000	0.000000	15	-0.077460	-0.019279	-0.002340	-0.054531 	-0.022797	-0.003540
0.707998	-0.122070	0.061035	0.183105	0.019160	0.000000	9.752520	0.000000	0.000000	0.000000	15	-0.074821	-0.019609	-0.002423	-0.051070 	-0.022581	-0.003174
0.709998	-0.183105	0.061035	0.183105	0.019160	0.000000	9.752520	0.000000	0.000000	0.000000	15	-0.072106	-0.019897	-0.002462	-0.047677 	-0.022488	-0.002808
0.711998	-0.183105	0.061035	0.183105	0.019160	0.000000	9.752520	0.000000	0.000000	0.000000	15	-0.069331	-0.020147	-0.002460	-0.044353 	-0.022397	-0.002441
0.713998	0.000000	0.061035	0.244141	0.019160	0.000000	9.752520	0.000000	0.000000	0.000000	15	-0.066507	-0.020327	-0.002409	-0.041095 	-0.021949	-0.001953
0.715998	0.000000	0.061035	0.244141	0.019160	0.000000	9.752520	0.000000	0.000000	0.000000	15	-0.063647	-0.020445	-0.002314	-0.037902 	-0.021510	-0.001465
0.717998	0.000000	0.061035	0.244141	0.019160	0.000000	9.752520	0.000000	0.000000	0.000000	15	-0.060759	-0.020509	-0.002181	-0.034773 	-0.021080	-0.000977
0.719998	0.000000	-0.061035	0.427246	0.019160	0.000000	9.752520	0.000000	0.000000	0.000000	15	-0.057878	-0.020524	-0.001975	-0.031946 	-0.020658	-0.000122
0.721998	0.000000	-0.061035	0.427246	0.019160	0.000000	9.752520	0.000000	0.000000	0.000000	15	-0.055008	-0.020496	-0.001704	-0.029175 	-0.020245	0.000732
0.723998	-0.061035	0.000000	0.122070	-0.057480	0.000000	9.752520	0.000000	0.000000	0.000000	15	-0.053042	-0.020442	-0.001436	-0.035346 	-0.019960	0.000977
0.725998	-0.061035	0.000000	0.122070	-0.057480	0.000000	9.752520	0.000000	0.000000	0.000000	15	-0.051877	-0.020366	-0.001170	-0.041393 	-0.019680	0.001221
0.727998	-0.061035	0.000000	0.122070	-0.057480	0.000000	9.752520	0.000000	0.000000	0.000000	15	-0.051421	-0.020270	-0.000907	-0.047319 	-0.019406	0.001465
0.729998	-0.122070	0.061035	0.122070	-0.057480	0.000000	9.752520	0.000000	0.000000	0.000000	18	-0.051580	-0.020169	-0.000645	-0.053007 	-0.019258	0.001709
0.731998	-0.122070	0.061035	0.122070	-0.057480	0.000000	9.752520	0.000000	0.000000	0.000000	18	-0.052280	-0.020063	-0.000385	-0.058581 	-0.019112	0.001953
0.733998	-0.122070	-0.061035	0.122070	-0.057480	0.000000	9.752520	0.000000	0.000000	0.000000	18	-0.053480	-0.019954	-0.000127	-0.064283 	-0.018969	0.002197
0.735998	-0.122070	-0.061035	0.122070	-0.057480	0.000000	9.752520	0.000000	0.000000	0.000000	18	-0.055119	-0.019841	0.000130	-0.069871 	-0.018829	0.002441
0.737998	-0.122070	-0.061035	0.122070	-0.057480	0.000000	9.752520	0.000000	0.000000	0.000000	18	-0.057142	-0.019726	0.000385	-0.075348 	-0.018691	0.002686
0.739998	-0.061035	-0.061035	0.000000	0.019160	0.000000	9.752520	0.000000	0.000000	0.000000	18	-0.058599	-0.019597	0.000615	-0.071709 	-0.018437	0.002686
0.741998	-0.061035	-0.061035	0.000000	0.019160	0.000000	9.752520	0.000000	0.000000	0.000000	18	-0.059553	-0.019456	0.000822	-0.068143 	-0.018188	0.002686
0.743998	-0.244141	0.000000	-0.122070	0.019160	0.000000	9.752520	0.000000	0.000000	0.000000	18	-0.060051	-0.019341	0.000984	-0.064529 	-0.018303	0.002441
0.745997	-0.244141	0.000000	-0.122070	0.019160	0.000000	9.752520	0.000000	0.000000	0.000000	18	-0.060144	-0.019248	0.001106	-0.060987 	-0.018415	0.002197
0.747997	-0.244141	0.000000	-0.122070	0.019160	0.000000	9.752520	0.000000	0.000000	0.000000	18	-0.059881	-0.019176	0.001190	-0.057516 	-0.018525	0.001953
0.749997	-0.183105	0.061035	-0.183105	0.019160	0.000000	9.752520	0.000000	0.000000	0.000000	18	-0.059293	-0.019110	0.001230	-0.053994 	-0.018514	0.001587
0.751997	-0.183105	0.061035	-0.183105	0.019160	0.000000	9.752520	0.000000	0.000000	0.000000	18	-0.058418	-0.019049	0.001229	-0.050543 	-0.018502	0.001221
0.753997	-0.183105	0.000000	-0.183105	0.019160	0.000000	9.752520	0.000000	0.000000	0.000000	18	-0.057304	-0.018993	0.001192	-0.047281 	-0.018491	0.000854
0.755997	-0.183105	0.000000	-0.183105	0.019160	0.000000	9.752520	0.000000	0.000000	0.000000	18	-0.055982	-0.018942	0.001121	-0.044084 	-0.018480	0.000488
0.757997	-0.183105	0.000000	-0.183105	0.019160	0.000000	9.752520	0.000000	0.000000	0.000000	18	-0.054479	-0.018895	0.001021	-0.040951 	-0.018470	0.000122
0.759997	-0.061035	-0.061035	0.122070	-0.057480	0.000000	9.752520	0.000000	0.000000	0.000000	18	-0.053732	-0.018827	0.000956	-0.047006 	-0.018220	0.000366
0.761997	-0.061035	-0.061035	0.122070	-0.057480	0.000000	9.752520	0.000000	0.000000	0.000000	18	-0.053652	-0.018742	0.000921	-0.052939 	-0.017975	0.000610
0.763997	0.061035	0.000000	0.000000	-0.057480	0.000000	9.752520	0.000000	0.000000	0.000000	18	-0.054151	-0.018617	0.000890	-0.058635 	-0.017496	0.000610
0.765997	0.061035	0.000000	0.000000	-0.057480	0.000000	9.752520	0.000000	0.000000	0.000000	18	-0.055157	-0.018458	0.000862	-0.064216 	-0.017026	0.000610
0.767997	0.061035	0.000000	0.000000	-0.057480	0.000000	9.752520	0.000000	0.000000	0.000000	18	-0.056610	-0.018269	0.000837	-0.069686 	-0.016566	0.000610
0.769997	0.000000	0.000000	0.305176	-0.057480	0.000000	9.752520	0.000000	0.000000	0.000000	18	-0.058454	-0.018066	0.000875	-0.075046 	-0.016235	0.001221
0.771997	0.000000	0.000000	0.305176	-0.057480	0.000000	9.752520	0.000000	0.000000	0.000000	18	-0.060638	-0.017850	0.000971	-0.080299 	-0.015910	0.001831
0.773997	0.183105	0.061035	0.122070	-0.057480	0.000000	9.752520	0.000000	0.000000	0.000000	16	-0.063107	-0.017588	0.001081	-0.085328 	-0.015233	0.002075
0.775997	0.183105	0.061035	0.122070	-0.057480	0.000000	9.752520	0.000000	0.000000	0.000000	16	-0.065822	-0.017287	0.001205	-0.090255 	-0.014570	0.002319
0.777997	0.183105	0.061035	0.122070	-0.057480	0.000000	9.752520	0.000000	0.000000	0.000000	16	-0.068748	-0.016950	0.001341	-0.095085 	-0.013919	0.002563
0.779997	0.000000	-0.061035	0.061035	-0.057480	0.000000	9.752520	0.000000	0.000000	0.000000	16	-0.071879	-0.016619	0.001475	-0.100057 	-0.013641	0.002686
0.781997	0.000000	-0.061035	0.061035	-0.057480	0.000000	9.752520	0.000000	0.000000	0.000000	16	-0.075184	-0.016294	0.001609	-0.104929 	-0.013368	0.002808
0.783997	0.122070	0.061035	0.061035	-0.057480	0.000000	9.752520	0.000000	0.000000	0.000000	16	-0.078612	-0.015951	0.001741	-0.109465 	-0.012861	0.002930
0.785997	0.122070	0.061035	0.061035	-0.057480	0.000000	9.752520	0.000000	0.000000	0.000000	16	-0.082142	-0.015592	0.001872	-0.113910 	-0.012365	0.003052
0.787997	0.122070	0.061035	0.061035	-0.057480	0.000000	9.752520	0.000000	0.000000	0.000000	16	-0.085754	-0.015221	0.002002	-0.118266 	-0.011878	0.003174
0.789997	0.305176	0.000000	0.122070	-0.057480	0.000000	9.752520	0.000000	0.000000	0.000000	16	-0.089445	-0.014803	0.002144	-0.122655 	-0.011043	0.003418
0.791997	0.305176	0.000000	0.122070	-0.057480	0.000000	9.752520	0.000000	0.000000	0.000000	16	-0.093196	-0.014345	0.002296	-0.126956 	-0.010224	0.003662
0.793997	0.244141	-0.183105	0.061035	-0.057480	0.000000	9.752520	0.000000	0.000000	0.000000	16	-0.097029	-0.013865	0.002444	-0.131530 	-0.009541	0.003784
0.795997	0.244141	-0.183105	0.061035	-0.057480	0.000000	9.752520	0.000000	0.000000	0.000000	16	-0.100927	-0.013365	0.002591	-0.136012 	-0.008871	0.003906
0.797997	0.244141	-0.183105	0.061035	-0.057480	0.000000	9.752520	0.000000	0.000000	0.000000	16	-0.104875	-0.012850	0.002734	-0.140405 	-0.008215	0.004028
0.799997	0.183105	-0.122070	-0.061035	0.019160	0.000000	9.752520	0.000000	0.000000	0.000000	16	-0.107946	-0.012334	0.002852	-0.135585 	-0.007692	0.003906
0.801997	0.183105	-0.122070	-0.061035	0.019160	0.000000	9.752520	0.000000	0.000000	0.000000	16	-0.110238	-0.011819	0.002945	-0.130861 	-0.007179	0.003784
0.803997	0.244141	-0.122070	0.000000	0.019160	0.000000	9.752520	0.000000	0.000000	0.000000	16	-0.111837	-0.011293	0.003029	-0.126232 	-0.006557	0.003784
0.805997	0.244141	-0.122070	0.000000	0.019160	0.000000	9.752520	0.000000	0.000000	0.000000	16	-0.112823	-0.010758	0.003104	-0.121695 	-0.005948	0.003784
0.807997	0.244141	-0.122070	0.000000	0.019160	0.000000	9.752520	0.000000	0.000000	0.000000	16	-0.113265	-0.010217	0.003172	-0.117249 	-0.005350	0.003784
0.809997	0.244141	-0.244141	-0.061035	0.019160	0.000000	9.752520	0.000000	0.000000	0.000000	16	-0.113252	-0.009672	0.003221	-0.113131 	-0.004765	0.003662
0.811997	0.244141	-0.244141	-0.061035	0.019160	0.000000	9.752520	0.000000	0.000000	0.000000	16	-0.112836	-0.009124	0.003253	-0.109095 	-0.004191	0.003540
0.813997	0.366211	-0.122070	-0.122070	0.019160	0.000000	9.675879	0.000000	0.000000	0.000000	16	-0.112041	-0.008551	0.003257	-0.104884 	-0.003389	0.003296
0.815997	0.366211	-0.122070	-0.122070	0.019160	0.000000	9.675879	0.000000	0.000000	0.000000	16	-0.110913	-0.007956	0.003237	-0.100756 	-0.002604	0.003052
0.817997	0.366211	-0.122070	-0.122070	0.019160	0.000000	9.675879	0.000000	0.000000	0.000000	16	-0.109492	-0.007344	0.003194	-0.096711 	-0.001834	0.002808
0.819997	0.549316	-0.183105	0.183105	0.019160	0.000000	9.675879	0.000000	0.000000	0.000000	16	-0.107830	-0.006681	0.003192	-0.092866 	-0.000721	0.003174
0.821997	0.549316	-0.183105	0.183105	0.019160	0.000000	9.675879	0.000000	0.000000	0.000000	16	-0.105957	-0.005976	0.003227	-0.089099 	0.000370	0.003540
0.823996	0.488281	-0.244141	0.122070	0.019160	-0.076641	9.752520	0.000000	0.000000	0.000000	16	-0.103915	-0.006147	0.003282	-0.085544 	-0.007685	0.003784
0.825996	0.488281	-0.244141	0.122070	0.019160	-0.076641	9.752520	0.000000	0.000000	0.000000	16	-0.101730	-0.007090	0.003357	-0.082060 	-0.015580	0.004028
0.827996	0.488281	-0.244141	0.122070	0.019160	-0.076641	9.752520	0.000000	0.000000	0.000000	16	-0.099422	-0.008713	0.003449	-0.078646 	-0.023316	0.004272
0.829996	0.671387	-0.183105	0.122070	0.019160	0.000000	9.752520	0.000000	0.000000	0.000000	16	-0.096997	-0.009995	0.003555	-0.075181 	-0.021534	0.004517
0.831996	0.671387	-0.183105	0.122070	0.019160	0.000000	9.752520	0.000000	0.000000	0.000000	16	-0.094476	-0.010974	0.003676	-0.071785 	-0.019788	0.004761
0.833996	0.610352	-0.244141	0.366211	0.019160	-0.076641	9.752520	0.000000	0.000000	0.000000	16	-0.091886	-0.012597	0.003858	-0.068576 	-0.027201	0.005493
0.835996	0.610352	-0.244141	0.366211	0.019160	-0.076641	9.752520	0.000000	0.000000	0.000000	16	-0.089241	-0.014784	0.004094	-0.065432 	-0.034466	0.006226
0.837996	0.610352	-0.244141	0.366211	0.019160	-0.076641	9.752520	0.000000	0.000000	0.000000	16	-0.086552	-0.017464	0.004381	-0.062351 	-0.041585	0.006958
0.839996	0.549316	-0.366211	-0.122070	0.019160	0.000000	9.752520	0.000000	0.000000	0.000000	16	-0.083854	-0.019685	0.004614	-0.059570 	-0.039677	0.006714
0.841996	0.549316	-0.366211	-0.122070	0.019160	0.000000	9.752520	0.000000	0.000000	0.000000	16	-0.081153	-0.021497	0.004800	-0.056845 	-0.037807	0.006470
0.843996	0.549316	-0.366211	-0.122070	0.019160	0.000000	9.752520	0.000000	0.000000	0.000000	16	-0.078455	-0.022945	0.004942	-0.054174 	-0.035974	0.006226
0.845996	0.366211	-0.244141	-0.122070	0.019160	0.000000	9.752520	0.000000	0.000000	0.000000	16	-0.075741	-0.024104	0.005046	-0.051318 	-0.034537	0.005981
0.847996	0.366211	-0.244141	-0.122070	0.019160	0.000000	9.752520	0.000000	0.000000	0.000000	16	-0.073019	-0.025007	0.005115	-0.048519 	-0.033128	0.005737
0.849996	0.366211	-0.244141	0.061035	0.019160	0.000000	9.752520	0.000000	0.000000	0.000000	16	-0.070295	-0.025681	0.005190	-0.045776 	-0.031748	0.005859
0.851996	0.366211	-0.244141	0.061035	0.019160	0.000000	9.752520	0.000000	0.000000	0.000000	16	-0.067574	-0.026152	0.005269	-0.043087 	-0.030395	0.005981
0.853996	0.366211	-0.244141	0.061035	0.019160	0.000000	9.752520	0.000000	0.000000	0.000000	16	-0.064862	-0.026444	0.005352	-0.040453 	-0.029070	0.006104
0.855996	0.366211	-0.305176	0.122070	0.019160	0.000000	9.752520	0.000000	0.000000	0.000000	16	-0.062175	-0.026577	0.005452	-0.037990 	-0.027770	0.006348
0.857996	0.366211	-0.305176	0.122070	0.019160	0.000000	9.752520	0.000000	0.000000	0.000000	16	-0.059515	-0.026569	0.005566	-0.035577 	-0.026497	0.006592
0.859996	0.366211	-0.244141	0.183105	0.019160	0.000000	9.752520	0.000000	0.000000	0.000000	16	-0.056873	-0.026437	0.005705	-0.033093 	-0.025250	0.006958
0.861996	0.366211	-0.244141	0.183105	0.019160	0.000000	9.752520	0.000000	0.000000	0.000000	16	-0.054251	-0.026196	0.005867	-0.030658 	-0.024027	0.007324
0.863996	0.366211	-0.244141	0.183105	0.019160	0.000000	9.752520	0.000000	0.000000	0.000000	16	-0.051653	-0.025859	0.006049	-0.028272 	-0.022828	0.007690
0.865996	0.244141	-0.122070	-0.061035	0.019160	0.000000	9.752520	0.000000	0.000000	0.000000	16	-0.049058	-0.025462	0.006201	-0.025695 	-0.021893	0.007568
0.867996	0.244141	-0.122070	-0.061035	0.019160	0.000000	9.752520	0.000000	0.000000	0.000000	16	-0.046469	-0.025014	0.006326	-0.023169 	-0.020977	0.007446
0.869996	0.305176	-0.061035	-0.061035	0.019160	0.000000	9.752520	0.000000	0.000000	0.000000	16	-0.043879	-0.024508	0.006426	-0.020574 	-0.019959	0.007324
0.871996	0.305176	-0.061035	-0.061035	0.019160	0.000000	9.752520	0.000000	0.000000	0.000000	16	-0.041294	-0.023954	0.006503	-0.018030 	-0.018962	0.007202
0.873996	0.305176	-0.061035	-0.061035	0.019160	0.000000	9.752520	0.000000	0.000000	0.000000	16	-0.038719	-0.023357	0.006561	-0.015538 	-0.017985	0.007080
0.875996	0.305176	-0.183105	-0.183105	-0.057480	0.000000	9.752520	0.000000	0.000000	0.000000	16	-0.037081	-0.022724	0.006576	-0.022340 	-0.017027	0.006714
0.877996	0.305176	-0.183105	-0.183105	-0.057480	0.000000	9.752520	0.000000	0.000000	0.000000	16	-0.036273	-0.022060	0.006553	-0.029006 	-0.016088	0.006348
0.879996	0.244141	-0.244141	-0.122070	-0.057480	0.000000	9.752520	0.000000	0.000000	0.000000	16	-0.036212	-0.021383	0.006508	-0.035659 	-0.015288	0.006104
0.881996	0.244141	-0.244141	-0.122070	-0.057480	0.000000	9.752520	0.000000	0.000000	0.000000	16	-0.036809	-0.020695	0.006443	-0.042178 	-0.014504	0.005859
0.883996	0.244141	-0.244141	-0.122070	-0.057480	0.000000	9.752520	0.000000	0.000000	0.000000	16	-0.037984	-0.019999	0.006361	-0.048567 	-0.013735	0.005615
0.885996	0.183105	-0.122070	-0.244141	-0.057480	0.000000	9.752520	0.000000	0.000000	0.000000	16	-0.039645	-0.019309	0.006237	-0.054589 	-0.013101	0.005127
0.887996	0.183105	-0.122070	-0.244141	-0.057480	0.000000	9.752520	0.000000	0.000000	0.000000	16	-0.041729	-0.018626	0.006077	-0.060491 	-0.012480	0.004639
0.889996	0.305176	-0.183105	-0.305176	-0.057480	0.000000	9.752520	0.000000	0.000000	0.000000	16	-0.044196	-0.017927	0.005873	-0.066394 	-0.011633	0.004028
0.891996	0.305176	-0.183105	-0.305176	-0.057480	0.000000	9.752520	0.000000	0.000000	0.000000	16	-0.046994	-0.017215	0.005627	-0.072179 	-0.010802	0.003418
0.893996	0.305176	-0.183105	-0.305176	-0.057480	0.000000	9.752520	0.000000	0.000000	0.000000	16	-0.050080	-0.016492	0.005345	-0.077848 	-0.009988	0.002808
0.895996	0.122070	-0.061035	-0.244141	-0.057480	0.000000	9.752520	0.000000	0.000000	0.000000	16	-0.053388	-0.015798	0.005043	-0.083165 	-0.009549	0.002319
0.897996	0.122070	-0.061035	-0.244141	-0.057480	0.000000	9.752520	0.000000	0.000000	0.000000	16	-0.056887	-0.015130	0.004721	-0.088375 	-0.009118	0.001831
0.899996	-0.061035	-0.122070	-0.244141	-0.057480	0.000000	9.752520	0.000000	0.000000	0.000000	16	-0.060558	-0.014522	0.004384	-0.093601 	-0.009056	0.001343
0.901995	-0.061035	-0.122070	-0.244141	-0.057480	0.000000	9.752520	0.000000	0.000000	0.000000	16	-0.064375	-0.013969	0.004031	-0.098722 	-0.008994	0.000854
0.903995	-0.061035	-0.122070	-0.244141	-0.057480	0.000000	9.752520	0.000000	0.000000	0.000000	16	-0.068311	-0.013466	0.003664	-0.103741 	-0.008934	0.000366
0.905995	0.000000	-0.061035	-0.183105	-0.057480	0.000000	9.752520	0.000000	0.000000	0.000000	16	-0.072334	-0.012995	0.003298	-0.108540 	-0.008755	0.000000
0.907995	0.000000	-0.061035	-0.183105	-0.057480	0.000000	9.752520	0.000000	0.000000	0.000000	16	-0.076425	-0.012553	0.002931	-0.113243 	-0.008580	-0.000366
0.909995	-0.061035	-0.122070	0.000000	-0.057480	0.000000	9.752520	0.000000	0.000000	0.000000	15	-0.080580	-0.012151	0.002602	-0.117971 	-0.008528	-0.000366
0.911995	-0.061035	-0.122070	0.000000	-0.057480	0.000000	9.752520	0.000000	0.000000	0.000000	15	-0.084782	-0.011784	0.002305	-0.122605 	-0.008477	-0.000366
0.913995	-0.061035	-0.122070	0.000000	-0.057480	0.000000	9.752520	0.000000	0.000000	0.000000	15	-0.089019	-0.011448	0.002038	-0.127146 	-0.008427	-0.000366
0.915995	-0.183105	0.000000	0.000000	-0.057480	0.000000	9.752520	0.000000	0.000000	0.000000	15	-0.093253	-0.011165	0.001797	-0.131358 	-0.008618	-0.000366
0.917995	-0.183105	0.000000	0.000000	-0.057480	0.000000	9.752520	0.000000	0.000000	0.000000	15	-0.097476	-0.010929	0.001581	-0.135484 	-0.008804	-0.000366
0.919995	-0.244141	-0.061035	-0.061035	-0.057480	0.000000	9.752520	0.000000	0.000000	0.000000	15	-0.101693	-0.010747	0.001374	-0.139648 	-0.009107	-0.000488
0.921995	-0.244141	-0.061035	-0.061035	-0.057480	0.000000	9.752520	0.000000	0.000000	0.000000	15	-0.105897	-0.010612	0.001176	-0.143729 	-0.009403	-0.000610
0.923995	-0.244141	-0.061035	-0.061035	-0.057480	0.000000	9.752520	0.000000	0.000000	0.000000	15	-0.110080	-0.010520	0.000985	-0.147728 	-0.009694	-0.000732
0.925995	0.000000	-0.061035	0.000000	-0.057480	0.000000	9.752520	0.000000	0.000000	0.000000	15	-0.114237	-0.010418	0.000813	-0.151647 	-0.009500	-0.000732
0.927995	0.000000	-0.061035	0.000000	-0.057480	0.000000	9.752520	0.000000	0.000000	0.000000	15	-0.118362	-0.010307	0.000659	-0.155488 	-0.009310	-0.000732
0.929995	-0.183105	-0.061035	0.061035	-0.057480	0.000000	9.752520	0.000000	0.000000	0.000000	15	-0.122451	-0.010225	0.000532	-0.159252 	-0.009482	-0.000610
0.931995	-0.183105	-0.061035	0.061035	-0.057480	0.000000	9.752520	0.000000	0.000000	0.000000	15	-0.126500	-0.010168	0.000430	-0.162941 	-0.009652	-0.000488
0.933995	-0.183105	-0.061035	0.061035	-0.057480	0.000000	9.752520	0.000000	0.000000	0.000000	15	-0.130505	-0.010133	0.000350	-0.166555 	-0.009817	-0.000366
0.935995	-0.244141	0.061035	-0.122070	-0.057480	0.000000	9.675879	0.000000	0.000000	0.000000	15	-0.134446	-0.010129	0.000254	-0.169912 	-0.010100	-0.000610
0.937995	-0.244141	0.061035	-0.122070	-0.057480	0.000000	9.675879	0.000000	0.000000	0.000000	15	-0.138322	-0.010154	0.000143	-0.173202 	-0.010376	-0.000854
0.939995	-0.122070	0.061035	-0.061035	-0.057480	0.000000	9.675879	0.000000	0.000000	0.000000	15	-0.142132	-0.010179	0.000031	-0.176426 	-0.010408	-0.000977
0.941995	-0.122070	0.061035	-0.061035	-0.057480	0.000000	9.675879	0.000000	0.000000	0.000000	15	-0.145877	-0.010205	-0.000082	-0.179585 	-0.010439	-0.001099
0.943995	-0.122070	0.061035	-0.061035	-0.057480	0.000000	9.675879	0.000000	0.000000	0.000000	15	-0.149558	-0.010232	-0.000196	-0.182681 	-0.010469	-0.001221
0.945995	-0.183105	0.000000	0.000000	-0.057480	0.000000	9.675879	0.000000	0.000000	0.000000	15	-0.153185	-0.010270	-0.000298	-0.185835 	-0.010619	-0.001221
0.947995	-0.183105	0.000000	0.000000	-0.057480	0.000000	9.675879	0.000000	0.000000	0.000000	15	-0.156760	-0.010320	-0.000390	-0.188926 	-0.010765	-0.001221
0.949995	-0.122070	0.122070	0.000000	-0.057480	0.000000	9.675879	0.000000	0.000000	0.000000	15	-0.160255	-0.010367	-0.000473	-0.191716 	-0.010789	-0.001221
0.951995	-0.122070	0.122070	0.000000	-0.057480	0.000000	9.675879	0.000000	0.000000	0.000000	15	-0.163675	-0.010411	-0.000548	-0.194450 	-0.010813	-0.001221
0.953995	-0.122070	0.122070	0.000000	-0.057480	0.000000	9.675879	0.000000	0.000000	0.000000	15	-0.167020	-0.010454	-0.000615	-0.197129 	-0.010836	-0.001221
0.955995	0.000000	0.061035	0.244141	-0.057480	0.000000	9.675879	0.000000	0.000000	0.000000	16	-0.170306	-0.010470	-0.000627	-0.199874 	-0.010619	-0.000732
0.957995	0.000000	0.061035	0.244141	-0.057480	0.000000	9.675879	0.000000	0.000000	0.000000	16	-0.173531	-0.010464	-0.000589	-0.202565 	-0.010407	-0.000244
0.959995	-0.305176	0.000000	0.366211	-0.057480	0.000000	9.675879	0.000000	0.000000	0.000000	16	-0.176710	-0.010497	-0.000481	-0.205321 	-0.010797	0.000488
0.961995	-0.305176	0.000000	0.366211	-0.057480	0.000000	9.675879	0.000000	0.000000	0.000000	16	-0.179842	-0.010566	-0.000311	-0.208022 	-0.011179	0.001221
0.963995	-0.305176	0.000000	0.366211	-0.057480	0.000000	9.675879	0.000000	0.000000	0.000000	16	-0.182924	-0.010664	-0.000085	-0.210669 	-0.011554	0.001953
0.965995	-0.549316	-0.061035	0.366211	-0.057480	0.000000	9.752520	0.000000	0.000000	0.000000	16	-0.185965	-0.010838	0.000192	-0.213330 	-0.012399	0.002686
0.967995	-0.549316	-0.061035	0.366211	-0.057480	0.000000	9.752520	0.000000	0.000000	0.000000	16	-0.188962	-0.011077	0.000515	-0.215937 	-0.013228	0.003418
0.969995	0.183105	-0.061035	0.244141	-0.057480	0.000000	9.752520	0.000000	0.000000	0.000000	16	-0.191915	-0.011230	0.000854	-0.218492 	-0.012604	0.003906
0.971995	0.183105	-0.061035	0.244141	-0.057480	0.000000	9.752520	0.000000	0.000000	0.000000	16	-0.194823	-0.011306	0.001208	-0.220995 	-0.011993	0.004395
0.973995	0.183105	-0.061035	0.244141	-0.057480	0.000000	9.752520	0.000000	0.000000	0.000000	16	-0.197686	-0.011315	0.001576	-0.223449 	-0.011395	0.004883
0.975995	0.305176	-0.122070	0.244141	-0.057480	0.000000	9.752520	0.000000	0.000000	0.000000	16	-0.200514	-0.011240	0.001955	-0.225974 	-0.010569	0.005371
0.977995	0.305176	-0.122070	0.244141	-0.057480	0.000000	9.752520	0.000000	0.000000	0.000000	16	-0.203308	-0.011092	0.002346	-0.228447 	-0.009759	0.005859
0.979994	-0.183105	-0.183105	0.427246	-0.057480	0.000000	9.752520	0.000000	0.000000	0.000000	16	-0.206076	-0.010975	0.002782	-0.230991 	-0.009923	0.006714
0.981994	-0.183105	-0.183105	0.427246	-0.057480	0.000000	9.752520	0.000000	0.000000	0.000000	16	-0.208817	-0.010886	0.003261	-0.233484 	-0.010083	0.007568
0.983994	-0.183105	-0.183105	0.427246	-0.057480	0.000000	9.752520	0.000000	0.000000	0.000000	16	-0.211528	-0.010821	0.003777	-0.235928 	-0.010240	0.008423
0.985994	-0.305176	0.061035	0.305176	0.019160	0.000000	9.752520	0.000000	0.000000	0.000000	16	-0.213259	-0.010803	0.004303	-0.228838 	-0.010634	0.009033
0.987994	-0.305176	0.061035	0.305176	0.019160	0.000000	9.752520	0.000000	0.000000	0.000000	16	-0.214122	-0.010824	0.004837	-0.221890 	-0.011019	0.009644
0.989994	0.122070	-0.122070	0.061035	0.019160	0.000000	9.752520	0.000000	0.000000	0.000000	16	-0.214254	-0.010798	0.005330	-0.215440 	-0.010560	0.009766
0.991994	0.122070	-0.122070	0.061035	0.019160	0.000000	9.752520	0.000000	0.000000	0.000000	16	-0.213741	-0.010729	0.005786	-0.209120 	-0.010109	0.009888
0.993994	0.122070	-0.122070	0.061035	0.019160	0.000000	9.752520	0.000000	0.000000	0.000000	16	-0.212659	-0.010623	0.006208	-0.202925 	-0.009668	0.010010
0.995994	0.122070	-0.122070	0.122070	0.019160	0.000000	9.829160	0.000000	0.000000	0.000000	16	-0.211080	-0.010484	0.006613	-0.196872 	-0.009235	0.010254
0.997994	0.122070	-0.122070	0.122070	0.019160	0.000000	9.829160	0.000000	0.000000	0.000000	16	-0.209066	-0.010317	0.007001	-0.190940 	-0.008811	0.010498
0.999994	-0.122070	-0.061035	-0.183105	0.019160	0.000000	9.752520	0.000000	0.000000	0.000000	16	-0.206659	-0.010173	0.007314	-0.184989 	-0.008874	0.010132
1.001994	-0.122070	-0.061035	-0.183105	0.019160	0.000000	9.752520	0.000000	0.000000	0.000000	16	-0.203909	-0.010049	0.007559	-0.179158 	-0.008936	0.009766
1.003994	-0.122070	-0.061035	-0.183105	0.019160	0.000000	9.752520	0.000000	0.000000	0.000000	16	-0.200862	-0.009944	0.007743	-0.173443 	-0.008996	0.009399
1.005994	-0.061035	0.061035	-0.244141	0.019160	0.000000	9.829160	0.000000	0.000000	0.000000	16	-0.197538	-0.009843	0.007860	-0.167621 	-0.008936	0.008911
1.007994	-0.061035	0.061035	-0.244141	0.019160	0.000000	9.829160	0.000000	0.000000	0.000000	16	-0.193976	-0.009746	0.007916	-0.161915 	-0.008877	0.008423
1.009994	-0.305176	0.061035	-0.122070	0.019160	0.000000	9.752520	0.000000	0.000000	0.000000	16	-0.190209	-0.009701	0.007943	-0.156306 	-0.009298	0.008179
1.011994	-0.305176	0.061035	-0.122070	0.019160	0.000000	9.752520	0.000000	0.000000	0.000000	16	-0.186269	-0.009702	0.007942	-0.150808 	-0.009710	0.007935
1.013994	-0.305176	0.061035	-0.122070	0.019160	0.000000	9.752520	0.000000	0.000000	0.000000	16	-0.182184	-0.009743	0.007917	-0.145421 	-0.010114	0.007690
1.015994	-0.549316	0.000000	-0.732422	0.019160	0.000000	9.752520	0.000000	0.000000	0.000000	16	-0.177992	-0.009868	0.007748	-0.140261 	-0.010988	0.006226
1.017994	-0.549316	0.000000	-0.732422	0.019160	0.000000	9.752520	0.000000	0.000000	0.000000	16	-0.173713	-0.010066	0.007449	-0.135205 	-0.011845	0.004761
1.019994	-0.549316	0.183105	-0.671387	0.019160	0.000000	9.752520	0.000000	0.000000	0.000000	16	-0.169331	-0.010328	0.007046	-0.129891 	-0.012685	0.003418
1.021994	-0.549316	0.183105	-0.671387	0.019160	0.000000	9.752520	0.000000	0.000000	0.000000	16	-0.164866	-0.010646	0.006549	-0.124682 	-0.013508	0.002075
1.023994	-0.549316	0.183105	-0.671387	0.019160	0.000000	9.752520	0.000000	0.000000	0.000000	16	-0.160337	-0.011012	0.005967	-0.119579 	-0.014314	0.000732
1.025994	-0.610352	0.183105	-0.610352	0.019160	0.000000	9.752520	0.000000	0.000000	0.000000	16	-0.155761	-0.011434	0.005322	-0.114577 	-0.015224	-0.000488
1.027994	-0.610352	0.183105	-0.610352	0.019160	0.000000	9.752520	0.000000	0.000000	0.000000	16	-0.151152	-0.011902	0.004619	-0.109675 	-0.016116	-0.001709
1.029994	-0.610352	0.122070	-0.305176	0.019160	0.000000	9.752520	0.000000	0.000000	0.000000	16	-0.146536	-0.012411	0.003925	-0.104991 	-0.016990	-0.002319
1.031994	-0.610352	0.122070	-0.305176	0.019160	0.000000	9.752520	0.000000	0.000000	0.000000	16	-0.141923	-0.012954	0.003239	-0.100400 	-0.017847	-0.002930
1.033994	-0.610352	0.122070	-0.305176	0.019160	0.000000	9.752520	0.000000	0.000000	0.000000	16	-0.137321	-0.013527	0.002561	-0.095902 	-0.018686	-0.003540
1.035994	-0.488281	0.061035	-0.305176	-0.057480	0.000000	9.752520	0.000000	0.000000	0.000000	16	-0.133650	-0.014102	0.001890	-0.100618 	-0.019269	-0.004150
1.037994	-0.488281	0.061035	-0.305176	-0.057480	0.000000	9.752520	0.000000	0.000000	0.000000	16	-0.130809	-0.014676	0.001225	-0.105240 	-0.019841	-0.004761
1.039994	-0.305176	0.183105	0.061035	-0.057480	0.000000	9.752520	0.000000	0.000000	0.000000	16	-0.128681	-0.015212	0.000639	-0.109531 	-0.020042	-0.004639
1.041994	-0.305176	0.183105	0.061035	-0.057480	0.000000	9.752520	0.000000	0.000000	0.000000	16	-0.127187	-0.015715	0.000123	-0.113735 	-0.020240	-0.004517
1.043994	-0.305176	0.183105	0.061035	-0.057480	0.000000	9.752520	0.000000	0.000000	0.000000	16	-0.126254	-0.016187	-0.000329	-0.117856 	-0.020433	-0.004395
1.045994	0.244141	0.061035	0.122070	-0.057480	0.000000	9.752520	0.000000	0.000000	0.000000	16	-0.125842	-0.016523	-0.000711	-0.122133 	-0.019546	-0.004150
1.047994	0.244141	0.061035	0.122070	-0.057480	0.000000	9.752520	0.000000	0.000000	0.000000	16	-0.125890	-0.016738	-0.001030	-0.126325 	-0.018676	-0.003906
1.049994	0.000000	-0.122070	0.366211	-0.057480	0.000000	9.752520	0.000000	0.000000	0.000000	16	-0.126380	-0.016894	-0.001245	-0.130791 	-0.018303	-0.003174
1.051994	0.000000	-0.122070	0.366211	-0.057480	0.000000	9.752520	0.000000	0.000000	0.000000	16	-0.127259	-0.016999	-0.001364	-0.135169 	-0.017937	-0.002441
1.053994	0.000000	-0.122070	0.366211	-0.057480	0.000000	9.752520	0.000000	0.000000	0.000000	16	-0.128479	-0.017057	-0.001399	-0.139459 	-0.017578	-0.001709
1.055994	-0.122070	-0.122070	0.366211	-0.057480	0.000000	9.752520	0.000000	0.000000	0.000000	16	-0.129997	-0.017098	-0.001357	-0.143663 	-0.017466	-0.000977
1.057994	-0.122070	-0.122070	0.366211	-0.057480	0.000000	9.752520	0.000000	0.000000	0.000000	16	-0.131776	-0.017123	-0.001245	-0.147783 	-0.017356	-0.000244
1.059994	0.305176	-0.122070	0.000000	-0.057480	0.000000	9.752520	0.000000	0.000000	0.000000	16	-0.133780	-0.017052	-0.001145	-0.151821 	-0.016410	-0.000244
1.061993	0.305176	-0.122070	0.000000	-0.057480	0.000000	9.752520	0.000000	0.000000	0.000000	16	-0.135980	-0.016895	-0.001055	-0.155777 	-0.015484	-0.000244
1.063993	0.305176	-0.122070	0.000000	-0.057480	0.000000	9.752520	0.000000	0.000000	0.000000	16	-0.138348	-0.016663	-0.000974	-0.159655 	-0.014576	-0.000244
1.065993	0.305176	-0.061035	0.122070	-0.057480	0.000000	9.752520	0.000000	0.000000	0.000000	16	-0.140846	-0.016366	-0.000877	-0.163336 	-0.013687	0.000000
1.067993	0.305176	-0.061035	0.122070	-0.057480	0.000000	9.752520	0.000000	0.000000	0.000000	16	-0.143456	-0.016011	-0.000765	-0.166943 	-0.012815	0.000244
1.069993	0.000000	0.000000	0.061035	-0.057480	0.000000	9.752520	0.000000	0.000000	0.000000	16	-0.146146	-0.015665	-0.000651	-0.170358 	-0.012558	0.000366
1.071993	0.000000	0.000000	0.061035	-0.057480	0.000000	9.752520	0.000000	0.000000	0.000000	16	-0.148902	-0.015330	-0.000537	-0.173705 	-0.012307	0.000488
1.073993	0.000000	0.000000	0.061035	-0.057480	0.000000	9.752520	0.000000	0.000000	0.000000	16	-0.151710	-0.015003	-0.000423	-0.176985 	-0.012061	0.000610
1.075993	-0.244141	-0.061035	-0.305176	0.019160	0.000000	9.752520	0.000000	0.000000	0.000000	16	-0.153671	-0.014732	-0.000380	-0.171313 	-0.012298	0.000000
1.077993	-0.244141	-0.061035	-0.305176	0.019160	0.000000	9.752520	0.000000	0.000000	0.000000	16	-0.154879	-0.014512	-0.000403	-0.165755 	-0.012531	-0.000610
1.079993	-0.305176	0.061035	-0.305176	-0.057480	0.000000	9.752520	0.000000	0.000000	0.000000	16	-0.156299	-0.014349	-0.000485	-0.169075 	-0.012878	-0.001221
1.081993	-0.305176	0.061035	-0.305176	-0.057480	0.000000	9.752520	0.000000	0.000000	0.000000	16	-0.157902	-0.014236	-0.000620	-0.172328 	-0.013219	-0.001831
1.083993	-0.305176	0.061035	-0.305176	-0.057480	0.000000	9.752520	0.000000	0.000000	0.000000	16	-0.159663	-0.014167	-0.000802	-0.175515 	-0.013553	-0.002441
1.085993	-0.061035	-0.122070	-0.488281	-0.057480	0.000000	9.752520	0.000000	0.000000	0.000000	16	-0.161596	-0.014091	-0.001064	-0.178998 	-0.013401	-0.003418
1.087993	-0.061035	-0.122070	-0.488281	-0.057480	0.000000	9.752520	0.000000	0.000000	0.000000	16	-0.163678	-0.014007	-0.001397	-0.182412 	-0.013253	-0.004395
1.089993	-0.061035	-0.122070	-0.488281	-0.057480	0.000000	9.752520	0.000000	0.000000	0.000000	16	-0.165886	-0.013917	-0.001794	-0.185757 	-0.013107	-0.005371
1.091993	0.061035	0.000000	-0.061035	-0.057480	0.000000	9.752520	0.000000	0.000000	0.000000	16	-0.168177	-0.013798	-0.002164	-0.188796 	-0.012726	-0.005493
1.093993	0.061035	0.000000	-0.061035	-0.057480	0.000000	9.752520	0.000000	0.000000	0.000000	16	-0.170537	-0.013653	-0.002509	-0.191774 	-0.012352	-0.005615
1.095993	0.000000	0.061035	0.122070	0.019160	0.000000	9.752520	0.000000	0.000000	0.000000	16	-0.172040	-0.013498	-0.002795	-0.185567 	-0.012105	-0.005371
1.097993	0.000000	0.061035	0.122070	0.019160	0.000000	9.752520	0.000000	0.000000	0.000000	16	-0.172784	-0.013335	-0.003028	-0.179485 	-0.011862	-0.005127
1.099993	0.000000	0.061035	0.122070	0.019160	0.000000	9.752520	0.000000	0.000000	0.000000	16	-0.172858	-0.013164	-0.003214	-0.173524 	-0.011625	-0.004883
1.101993	0.061035	-0.122070	-0.061035	0.019160	0.000000	9.752520	0.000000	0.000000	0.000000	16	-0.172377	-0.012975	-0.003393	-0.168042 	-0.011273	-0.005005
1.103993	0.061035	-0.122070	-0.061035	0.019160	0.000000	9.752520	0.000000	0.000000	0.000000	16	-0.171406	-0.012770	-0.003566	-0.162669 	-0.010928	-0.005127
1.105993	0.244141	-0.122070	0.183105	0.019160	0.000000	9.752520	0.000000	0.000000	0.000000	16	-0.170006	-0.012516	-0.003686	-0.157403 	-0.010231	-0.004761
1.107993	0.244141	-0.122070	0.183105	0.019160	0.000000	9.752520	0.000000	0.000000	0.000000	16	-0.168229	-0.012219	-0.003757	-0.152243 	-0.009548	-0.004395
1.109993	0.244141	-0.122070	0.183105	0.019160	0.000000	9.752520	0.000000	0.000000	0.000000	16	-0.166125	-0.011885	-0.003784	-0.147186 	-0.008878	-0.004028
1.111993	0.122070	-0.122070	0.122070	0.019160	0.000000	9.752520	0.000000	0.000000	0.000000	16	-0.163736	-0.011543	-0.003784	-0.142230 	-0.008461	-0.003784
1.113993	0.122070	-0.122070	0.122070	0.019160	0.000000	9.752520	0.000000	0.000000	0.000000	16	-0.161099	-0.011194	-0.003760	-0.137374 	-0.008053	-0.003540
1.115993	0.244141	-0.061035	0.000000	0.019160	0.000000	9.752520	0.000000	0.000000	0.000000	16	-0.158239	-0.010816	-0.003738	-0.132494 	-0.007413	-0.003540
1.117993	0.244141	-0.061035	0.000000	0.019160	0.000000	9.752520	0.000000	0.000000	0.000000	16	-0.155186	-0.010413	-0.003718	-0.127713 	-0.006787	-0.003540
1.119993	0.244141	-0.061035	0.000000	0.019160	0.000000	9.752520	0.000000	0.000000	0.000000	16	-0.151970	-0.009989	-0.003700	-0.123027 	-0.006172	-0.003540
1.121993	0.427246	-0.061035	0.244141	0.019160	0.000000	9.752520	0.000000	0.000000	0.000000	16	-0.148617	-0.009511	-0.003635	-0.118434 	-0.005212	-0.003052
1.123993	0.427246	-0.061035	0.244141	0.019160	0.000000	9.752520	0.000000	0.000000	0.000000	16	-0.145148	-0.008987	-0.003528	-0.113934 	-0.004270	-0.002563
1.125993	0.305176	-0.061035	0.122070	0.019160	0.000000	9.752520	0.000000	0.000000	0.000000	16	-0.141586	-0.008447	-0.003407	-0.109524 	-0.003586	-0.002319
1.127993	0.305176	-0.061035	0.122070	0.019160	0.000000	9.752520	0.000000	0.000000	0.000000	16	-0.137947	-0.007894	-0.003274	-0.105201 	-0.002916	-0.002075
1.129993	0.305176	-0.061035	0.122070	0.019160	0.000000	9.752520	0.000000	0.000000	0.000000	16	-0.134249	-0.007331	-0.003130	-0.100966 	-0.002260	-0.001831
1.131993	0.244141	-0.061035	0.061035	0.019160	0.000000	9.752520	0.000000	0.000000	0.000000	16	-0.130506	-0.006771	-0.002988	-0.096815 	-0.001736	-0.001709
1.133993	0.244141	-0.061035	0.061035	0.019160	0.000000	9.752520	0.000000	0.000000	0.000000	16	-0.126730	-0.006216	-0.002848	-0.092747 	-0.001223	-0.001587
1.135993	0.061035	0.061035	0.000000	0.019160	0.000000	9.752520	0.000000	0.000000	0.000000	16	-0.122909	-0.005703	-0.002721	-0.088521 	-0.001079	-0.001587
1.137993	0.061035	0.061035	0.000000	0.019160	0.000000	9.752520	0.000000	0.000000	0.000000	16	-0.119056	-0.005226	-0.002608	-0.084379 	-0.000938	-0.001587
1.139992	0.061035	0.061035	0.000000	0.019160	0.000000	9.752520	0.000000	0.000000	0.000000	16	-0.115182	-0.004783	-0.002506	-0.080321 	-0.000799	-0.001587
1.141992	-0.305176	0.549316	-0.061035	0.019160	0.076641	9.829160	0.000000	0.000000	0.000000	16	-0.111205	-0.003550	-0.002426	-0.075404 	0.007554	-0.001709
1.143992	-0.305176	0.549316	-0.061035	0.019160	0.076641	9.829160	0.000000	0.000000	0.000000	16	-0.107143	-0.001621	-0.002367	-0.070585 	0.015739	-0.001831
1.145992	-1.953125	3.234863	1.586914	-0.057480	0.000000	9.829160	0.000000	0.000000	0.000000	16	-0.103382	-0.000299	-0.001996	-0.069535 	0.011597	0.001343
1.147992	-1.953125	3.234863	1.586914	-0.057480	0.000000	9.829160	0.000000	0.000000	0.000000	16	-0.099894	0.000484	-0.001345	-0.068505 	0.007536	0.004517
1.149992	-1.953125	3.234863	1.586914	-0.057480	0.000000	9.829160	0.000000	0.000000	0.000000	16	-0.096654	0.000792	-0.000441	-0.067496 	0.003558	0.007690
1.151992	0.366211	-1.098633	-0.854492	-0.057480	0.000000	9.752520	0.000000	0.000000	0.000000	16	-0.094494	0.001133	0.000201	-0.075053 	0.004204	0.005981
1.153992	0.366211	-1.098633	-0.854492	-0.057480	0.000000	9.752520	0.000000	0.000000	0.000000	16	-0.093291	0.001504	0.000608	-0.082460 	0.004838	0.004272
1.155992	0.244141	0.000000	0.732422	0.019160	0.000000	9.829160	0.000000	0.000000	0.000000	16	-0.091819	0.001875	0.001121	-0.078577 	0.005220	0.005737
1.157992	0.244141	0.000000	0.732422	0.019160	0.000000	9.829160	0.000000	0.000000	0.000000	16	-0.090115	0.002247	0.001729	-0.074771 	0.005594	0.007202
1.159992	0.244141	0.000000	0.732422	0.019160	0.000000	9.829160	0.000000	0.000000	0.000000	16	-0.088207	0.002618	0.002423	-0.071042 	0.005960	0.008667
1.161992	-0.915527	0.915527	0.305176	0.019160	0.000000	9.829160	0.000000	0.000000	0.000000	16	-0.085946	0.002761	0.003109	-0.065593 	0.004047	0.009277
1.163992	-0.915527	0.915527	0.305176	0.019160	0.000000	9.829160	0.000000	0.000000	0.000000	16	-0.083377	0.002702	0.003786	-0.060253 	0.002171	0.009888
1.165992	-0.305176	-0.427246	-1.159668	0.019160	0.076641	9.829160	0.000000	0.000000	0.000000	16	-0.080804	0.003478	0.004165	-0.057651 	0.010465	0.007568
1.167992	-0.305176	-0.427246	-1.159668	0.019160	0.076641	9.829160	0.000000	0.000000	0.000000	16	-0.078234	0.004990	0.004273	-0.055102 	0.018593	0.005249
1.169992	-0.305176	-0.427246	-1.159668	0.019160	0.076641	9.829160	0.000000	0.000000	0.000000	16	-0.075671	0.007147	0.004139	-0.052604 	0.026558	0.002930
1.171992	-0.122070	-0.427246	0.610352	0.019160	0.000000	9.752520	0.000000	0.000000	0.000000	16	-0.073118	0.009011	0.004140	-0.050138 	0.025787	0.004150
1.173992	-0.122070	-0.427246	0.610352	0.019160	0.000000	9.752520	0.000000	0.000000	0.000000	16	-0.070578	0.010613	0.004263	-0.047721 	0.025032	0.005371
1.175992	0.244141	-0.122070	0.305176	0.019160	0.000000	9.752520	0.000000	0.000000	0.000000	16	-0.067996	0.012053	0.004435	-0.044754 	0.025010	0.005981
1.177992	0.244141	-0.122070	0.305176	0.019160	0.000000	9.752520	0.000000	0.000000	0.000000	16	-0.065381	0.013346	0.004651	-0.041847 	0.024988	0.006592
1.179992	0.244141	-0.122070	0.305176	0.019160	0.000000	9.752520	0.000000	0.000000	0.000000	16	-0.062742	0.014508	0.004906	-0.038998 	0.024967	0.007202
1.181992	0.244141	0.610352	-0.244141	0.019160	0.000000	9.752520	0.000000	0.000000	0.000000	16	-0.059945	0.015552	0.005087	-0.034771 	0.024946	0.006714
1.183992	0.244141	0.610352	-0.244141	0.019160	0.000000	9.752520	0.000000	0.000000	0.000000	16	-0.057013	0.016489	0.005200	-0.030627 	0.024926	0.006226
1.185992	0.000000	-0.854492	0.366211	0.019160	0.000000	9.752520	0.000000	0.000000	0.000000	16	-0.054256	0.017283	0.005376	-0.029438 	0.024427	0.006958
1.187992	0.000000	-0.854492	0.366211	0.019160	0.000000	9.752520	0.000000	0.000000	0.000000	16	-0.051658	0.017949	0.005608	-0.028273 	0.023939	0.007690
1.189992	0.000000	-0.854492	0.366211	0.019160	0.000000	9.752520	0.000000	0.000000	0.000000	16	-0.049205	0.018500	0.005889	-0.027131 	0.023460	0.008423
1.191992	-0.122070	-0.305176	0.427246	0.172441	0.076641	9.752520	0.000000	0.000000	0.000000	16	-0.044977	0.019826	0.006228	-0.006927 	0.031756	0.009277
1.193992	-0.122070	-0.305176	0.427246	0.172441	0.076641	9.752520	0.000000	0.000000	0.000000	16	-0.039192	0.021831	0.006618	0.012873 	0.039885	0.010132
1.195992	-0.183105	0.183105	-0.305176	0.019160	0.076641	9.752520	0.000000	0.000000	0.000000	16	-0.033750	0.024422	0.006909	0.015226 	0.047734	0.009521
1.197992	-0.183105	0.183105	-0.305176	0.019160	0.076641	9.752520	0.000000	0.000000	0.000000	16	-0.028622	0.027522	0.007109	0.017532 	0.055425	0.008911
1.199992	-0.183105	0.183105	-0.305176	0.019160	0.076641	9.752520	0.000000	0.000000	0.000000	16	-0.023781	0.031066	0.007228	0.019791 	0.062963	0.008301
1.201992	-0.244141	-0.732422	0.183105	0.019160	0.076641	9.752520	0.000000	0.000000	0.000000	16	-0.019382	0.034983	0.007372	0.020211 	0.070231	0.008667
1.203992	-0.244141	-0.732422	0.183105	0.019160	0.076641	9.752520	0.000000	0.000000	0.000000	16	-0.015381	0.039220	0.007538	0.020623 	0.077353	0.009033
1.205992	0.061035	0.183105	0.061035	0.019160	0.076641	9.675879	0.000000	0.000000	0.000000	16	-0.011559	0.043798	0.007700	0.022838 	0.085002	0.009155
1.207992	0.061035	0.183105	0.061035	0.019160	0.076641	9.675879	0.000000	0.000000	0.000000	16	-0.007902	0.048668	0.007858	0.025009 	0.092498	0.009277
1.209992	0.061035	0.183105	0.061035	0.019160	0.076641	9.675879	0.000000	0.000000	0.000000	16	-0.004398	0.053786	0.008012	0.027137 	0.099845	0.009399
1.211992	-0.183105	0.244141	-0.915527	0.019160	0.076641	9.752520	0.000000	0.000000	0.000000	16	-0.001026	0.059057	0.007967	0.029324 	0.106494	0.007568
1.213992	-0.183105	0.244141	-0.915527	0.019160	0.076641	9.752520	0.000000	0.000000	0.000000	16	0.002223	0.064452	0.007744	0.031468 	0.113011	0.005737
1.215991	-0.122070	0.122070	-0.793457	0.019160	0.076641	9.752520	0.000000	0.000000	0.000000	16	0.005334	0.069958	0.007385	0.033329 	0.119517	0.004150
1.217991	-0.122070	0.122070	-0.793457	0.019160	0.076641	9.752520	0.000000	0.000000	0.000000	16	0.008316	0.075552	0.006903	0.035153 	0.125892	0.002563
1.219991	-0.122070	0.122070	-0.793457	0.019160	0.076641	9.752520	0.000000	0.000000	0.000000	16	0.011178	0.081211	0.006310	0.036940 	0.132140	0.000977
1.221991	1.586914	0.122070	0.122070	-0.057480	0.000000	9.752520	0.000000	0.000000	0.000000	16	0.013029	0.086350	0.005801	0.029687 	0.132608	0.001221
1.223991	1.586914	0.122070	0.122070	-0.057480	0.000000	9.752520	0.000000	0.000000	0.000000	16	0.013984	0.091022	0.005368	0.022578 	0.133066	0.001465
1.225991	0.671387	0.122070	1.037598	-0.057480	0.000000	9.752520	0.000000	0.000000	0.000000	16	0.014147	0.095092	0.005185	0.015612 	0.131721	0.003540
1.227991	0.671387	0.122070	1.037598	-0.057480	0.000000	9.752520	0.000000	0.000000	0.000000	16	0.013611	0.098623	0.005228	0.008785 	0.130402	0.005615
1.229991	0.671387	0.122070	1.037598	-0.057480	0.000000	9.752520	0.000000	0.000000	0.000000	16	0.012459	0.101672	0.005474	0.002094 	0.129110	0.007690
1.231991	-0.854492	-0.244141	-0.122070	-0.057480	0.000000	9.752520	0.000000	0.000000	0.000000	16	0.010695	0.103990	0.005671	-0.005180 	0.124853	0.007446
1.233991	-0.854492	-0.244141	-0.122070	-0.057480	0.000000	9.752520	0.000000	0.000000	0.000000	16	0.008395	0.105659	0.005824	-0.012309 	0.120681	0.007202
1.235991	-0.061035	0.305176	-0.061035	-0.057480	0.000000	9.752520	0.000000	0.000000	0.000000	16	0.005733	0.106908	0.005950	-0.018219 	0.118148	0.007080
1.237991	-0.061035	0.305176	-0.061035	-0.057480	0.000000	9.752520	0.000000	0.000000	0.000000	16	0.002759	0.107784	0.006051	-0.024010 	0.115665	0.006958
1.239991	-0.061035	0.305176	-0.061035	-0.057480	0.000000	9.752520	0.000000	0.000000	0.000000	16	-0.000486	0.108329	0.006129	-0.029686 	0.113233	0.006836
1.241991	0.488281	0.000000	0.488281	-0.057480	0.000000	9.829160	0.000000	0.000000	0.000000	16	-0.004016	0.108688	0.006298	-0.035794 	0.111925	0.007812
1.243991	0.488281	0.000000	0.488281	-0.057480	0.000000	9.829160	0.000000	0.000000	0.000000	16	-0.007793	0.108884	0.006547	-0.041779 	0.110643	0.008789
1.245991	-0.122070	-0.366211	-0.488281	-0.057480	0.000000	9.752520	0.000000	0.000000	0.000000	16	-0.011855	0.108814	0.006673	-0.048415 	0.108191	0.007812
1.247991	-0.122070	-0.366211	-0.488281	-0.057480	0.000000	9.752520	0.000000	0.000000	0.000000	16	-0.016161	0.108512	0.006690	-0.054919 	0.105788	0.006836
1.249991	-0.122070	-0.366211	-0.488281	-0.057480	0.000000	9.752520	0.000000	0.000000	0.000000	16	-0.020674	0.108004	0.006607	-0.061292 	0.103433	0.005859
1.251991	-0.244141	0.122070	-0.549316	-0.057480	-0.076641	9.752520	0.000000	0.000000	0.000000	16	-0.025265	0.106392	0.006422	-0.066581 	0.091881	0.004761
1.253991	-0.244141	0.122070	-0.549316	-0.057480	-0.076641	9.752520	0.000000	0.000000	0.000000	16	-0.029915	0.103808	0.006146	-0.071764 	0.080560	0.003662
1.255991	0.183105	0.061035	0.427246	-0.057480	-0.076641	9.829160	0.000000	0.000000	0.000000	16	-0.034615	0.100465	0.005983	-0.076910 	0.070372	0.004517
1.257991	0.183105	0.061035	0.427246	-0.057480	-0.076641	9.829160	0.000000	0.000000	0.000000	16	-0.039348	0.096457	0.005922	-0.081954 	0.060389	0.005371
1.259991	0.183105	0.061035	0.427246	-0.057480	-0.076641	9.829160	0.000000	0.000000	0.000000	16	-0.044103	0.091872	0.005952	-0.086896 	0.050605	0.006226
1.261991	0.061035	-0.183105	0.183105	-0.057480	0.000000	9.752520	0.000000	0.000000	0.000000	16	-0.048920	0.087656	0.006016	-0.092271 	0.049713	0.006592
1.263991	0.061035	-0.183105	0.183105	-0.057480	0.000000	9.752520	0.000000	0.000000	0.000000	16	-0.053782	0.083774	0.006110	-0.097539 	0.048838	0.006958
1.265991	-0.305176	0.061035	-0.122070	0.019160	0.000000	9.752520	0.000000	0.000000	0.000000	16	-0.057725	0.080123	0.006171	-0.093217 	0.047263	0.006714
1.267991	-0.305176	0.061035	-0.122070	0.019160	0.000000	9.752520	0.000000	0.000000	0.000000	16	-0.060851	0.076683	0.006201	-0.088982 	0.045720	0.006470
1.269991	-0.305176	0.061035	-0.122070	0.019160	0.000000	9.752520	0.000000	0.000000	0.000000	16	-0.063249	0.073435	0.006203	-0.084831 	0.044207	0.006226
1.271991	0.000000	0.061035	0.183105	0.019160	0.076641	9.752520	0.000000	0.000000	0.000000	16	-0.065000	0.071324	0.006242	-0.080763 	0.052328	0.006592
1.273991	0.000000	0.061035	0.183105	0.019160	0.076641	9.752520	0.000000	0.000000	0.000000	16	-0.066178	0.070221	0.006314	-0.076777 	0.060287	0.006958
1.275991	0.244141	-0.183105	0.122070	-0.057480	0.076641	9.752520	0.000000	0.000000	0.000000	16	-0.067796	0.070055	0.006402	-0.082354 	0.068565	0.007202
1.277991	0.244141	-0.183105	0.122070	-0.057480	0.076641	9.752520	0.000000	0.000000	0.000000	16	-0.069798	0.070717	0.006507	-0.087820 	0.076677	0.007446
1.279991	0.244141	-0.183105	0.122070	-0.057480	0.076641	9.752520	0.000000	0.000000	0.000000	16	-0.072136	0.072108	0.006625	-0.093176 	0.084627	0.007690
1.281991	-0.183105	0.244141	-0.427246	-0.057480	0.000000	9.752520	0.000000	0.000000	0.000000	16	-0.074681	0.073155	0.006646	-0.097588 	0.082576	0.006836
1.283991	-0.183105	0.244141	-0.427246	-0.057480	0.000000	9.752520	0.000000	0.000000	0.000000	16	-0.077404	0.073896	0.006580	-0.101912 	0.080566	0.005981
1.285991	-0.061035	0.000000	-0.061035	0.019160	0.000000	9.752520	0.000000	0.000000	0.000000	16	-0.079426	0.074390	0.006508	-0.097622 	0.078835	0.005859
1.287991	-0.061035	0.000000	-0.061035	0.019160	0.000000	9.752520	0.000000	0.000000	0.000000	16	-0.080825	0.074665	0.006431	-0.093419 	0.077138	0.005737
1.289991	-0.061035	0.000000	-0.061035	0.019160	0.000000	9.752520	0.000000	0.000000	0.000000	16	-0.081673	0.074746	0.006349	-0.089299 	0.075476	0.005615
1.291991	0.061035	-0.244141	0.427246	0.019160	0.000000	9.752520	0.000000	0.000000	0.000000	16	-0.082079	0.074680	0.006361	-0.085740 	0.074086	0.006470
1.293990	0.061035	-0.244141	0.427246	0.019160	0.000000	9.752520	0.000000	0.000000	0.000000	16	-0.082097	0.074484	0.006458	-0.082252 	0.072724	0.007324
1.295990	0.000000	0.000000	0.366211	0.019160	0.000000	9.752520	0.000000	0.000000	0.000000	16	-0.081723	0.074163	0.006617	-0.078356 	0.071269	0.008057
1.297990	0.000000	0.000000	0.366211	0.019160	0.000000	9.752520	0.000000	0.000000	0.000000	16	-0.081004	0.073731	0.006835	-0.074537 	0.069844	0.008789
1.299990	0.000000	0.000000	0.366211	0.019160	0.000000	9.752520	0.000000	0.000000	0.000000	16	-0.079983	0.073203	0.007103	-0.070795 	0.068447	0.009521
1.301990	-0.122070	0.000000	-0.183105	0.019160	0.076641	9.752520	0.000000	0.000000	0.000000	16	-0.078698	0.073467	0.007308	-0.067128 	0.075844	0.009155
1.303990	-0.122070	0.000000	-0.183105	0.019160	0.076641	9.752520	0.000000	0.000000	0.000000	16	-0.077181	0.074429	0.007457	-0.063534 	0.083093	0.008789
1.305990	0.061035	-0.122070	-0.244141	-0.057480	0.000000	9.752520	0.000000	0.000000	0.000000	16	-0.076389	0.075142	0.007541	-0.069257 	0.081551	0.008301
1.307990	0.061035	-0.122070	-0.244141	-0.057480	0.000000	9.752520	0.000000	0.000000	0.000000	16	-0.076237	0.075631	0.007568	-0.074865 	0.080040	0.007812
1.309990	0.061035	-0.122070	-0.244141	-0.057480	0.000000	9.752520	0.000000	0.000000	0.000000	16	-0.076649	0.075924	0.007544	-0.080361 	0.078559	0.007324
1.311990	0.061035	-0.122070	-0.244141	-0.057480	0.000000	9.752520	0.000000	0.000000	0.000000	16	-0.077559	0.076042	0.007473	-0.085747 	0.077107	0.006836
1.313990	0.122070	0.000000	-0.183105	-0.057480	0.000000	9.752520	0.000000	0.000000	0.000000	16	-0.078882	0.076019	0.007373	-0.090786 	0.075804	0.006470
1.315990	0.122070	0.000000	-0.183105	-0.057480	0.000000	9.752520	0.000000	0.000000	0.000000	16	-0.080566	0.075869	0.007246	-0.095725 	0.074527	0.006104
1.317990	-0.122070	0.061035	0.000000	-0.057480	0.000000	9.752520	0.000000	0.000000	0.000000	16	-0.082554	0.075562	0.007131	-0.100444 	0.072798	0.006104
1.319990	-0.122070	0.061035	0.000000	-0.057480	0.000000	9.752520	0.000000	0.000000	0.000000	16	-0.084805	0.075116	0.007029	-0.105070 	0.071102	0.006104
1.321990	0.000000	-0.183105	0.183105	-0.057480	0.000000	9.752520	0.000000	0.000000	0.000000	16	-0.087333	0.074573	0.006973	-0.110082 	0.069680	0.006470
1.323990	0.000000	-0.183105	0.183105	-0.057480	0.000000	9.752520	0.000000	0.000000	0.000000	16	-0.090099	0.073944	0.006959	-0.114993 	0.068287	0.006836
1.325990	0.000000	-0.183105	0.183105	-0.057480	0.000000	9.752520	0.000000	0.000000	0.000000	16	-0.093070	0.073242	0.006983	-0.119806 	0.066921	0.007202
1.327990	0.061035	0.000000	0.122070	-0.057480	0.000000	9.752520	0.000000	0.000000	0.000000	16	-0.096179	0.072488	0.007030	-0.124164 	0.065702	0.007446
1.329990	0.061035	0.000000	0.122070	-0.057480	0.000000	9.752520	0.000000	0.000000	0.000000	16	-0.099405	0.071690	0.007096	-0.128435 	0.064508	0.007690
1.331990	0.000000	0.000000	-0.061035	-0.057480	0.000000	9.752520	0.000000	0.000000	0.000000	16	-0.102726	0.070843	0.007143	-0.132620 	0.063218	0.007568
1.333990	0.000000	0.000000	-0.061035	-0.057480	0.000000	9.752520	0.000000	0.000000	0.000000	16	-0.106126	0.069954	0.007173	-0.136722 	0.061953	0.007446
1.335990	0.000000	0.000000	-0.061035	-0.057480	0.000000	9.752520	0.000000	0.000000	0.000000	16	-0.109587	0.069030	0.007188	-0.140741 	0.060714	0.007324
1.337990	-0.122070	0.000000	0.000000	-0.057480	0.000000	9.752520	0.000000	0.000000	0.000000	16	-0.113097	0.068053	0.007202	-0.144680 	0.059261	0.007324
1.339990	-0.122070	0.000000	0.000000	-0.057480	0.000000	9.752520	0.000000	0.000000	0.000000	16	-0.116641	0.067031	0.007214	-0.148541 	0.057836	0.007324
1.341990	0.061035	-0.061035	0.061035	-0.057480	0.000000	9.752520	0.000000	0.000000	0.000000	16	-0.120221	0.066008	0.007237	-0.152444 	0.056799	0.007446
1.343990	0.061035	-0.061035	0.061035	-0.057480	0.000000	9.752520	0.000000	0.000000	0.000000	16	-0.123826	0.064985	0.007271	-0.156269 	0.055783	0.007568
1.345990	0.061035	-0.061035	0.061035	-0.057480	0.000000	9.752520	0.000000	0.000000	0.000000	16	-0.127445	0.063966	0.007313	-0.160017 	0.054787	0.007690
1.347990	0.000000	0.000000	-0.183105	-0.057480	0.000000	9.829160	0.000000	0.000000	0.000000	16	-0.131052	0.062938	0.007314	-0.163518 	0.053691	0.007324
1.349990	0.000000	0.000000	-0.183105	-0.057480	0.000000	9.829160	0.000000	0.000000	0.000000	16	-0.134642	0.061906	0.007278	-0.166949 	0.052617	0.006958
1.351990	-0.061035	0.000000	0.000000	-0.057480	0.000000	9.829160	0.000000	0.000000	0.000000	16	-0.138209	0.060860	0.007246	-0.170311 	0.051445	0.006958
1.353990	-0.061035	0.000000	0.000000	-0.057480	0.000000	9.829160	0.000000	0.000000	0.000000	16	-0.141749	0.059804	0.007217	-0.173606 	0.050297	0.006958
1.355990	-0.061035	0.000000	0.000000	-0.057480	0.000000	9.829160	0.000000	0.000000	0.000000	16	-0.145257	0.058740	0.007191	-0.176836 	0.049171	0.006958
1.357990	0.061035	0.122070	0.122070	0.019160	0.000000	9.829160	0.000000	0.000000	0.000000	16	-0.147814	0.057697	0.007192	-0.170826 	0.048307	0.007202
1.359990	0.061035	0.122070	0.122070	0.019160	0.000000	9.829160	0.000000	0.000000	0.000000	16	-0.149526	0.056673	0.007218	-0.164936 	0.047461	0.007446
1.361990	0.061035	0.000000	-0.061035	0.019160	0.000000	9.752520	0.000000	0.000000	0.000000	16	-0.150512	0.055669	0.007228	-0.159386 	0.046631	0.007324
1.363990	0.061035	0.000000	-0.061035	0.019160	0.000000	9.752520	0.000000	0.000000	0.000000	16	-0.150856	0.054684	0.007226	-0.153947 	0.045818	0.007202
1.365990	0.061035	0.000000	-0.061035	0.019160	0.000000	9.752520	0.000000	0.000000	0.000000	16	-0.150632	0.053718	0.007211	-0.148617 	0.045021	0.007080
1.367990	-0.061035	-0.122070	-0.122070	0.019160	0.000000	9.829160	0.000000	0.000000	0.000000	16	-0.149934	0.052746	0.007174	-0.143650 	0.044001	0.006836
1.369990	-0.061035	-0.122070	-0.122070	0.019160	0.000000	9.829160	0.000000	0.000000	0.000000	16	-0.148819	0.051772	0.007116	-0.138782 	0.043002	0.006592
1.371989	0.000000	0.061035	-0.061035	0.019160	0.000000	9.829160	0.000000	0.000000	0.000000	16	-0.147302	0.050809	0.007051	-0.133653 	0.042142	0.006470
1.373989	0.000000	0.061035	-0.061035	0.019160	0.000000	9.829160	0.000000	0.000000	0.000000	16	-0.145435	0.049858	0.006981	-0.128627 	0.041299	0.006348
1.375989	0.000000	0.061035	-0.061035	0.019160	0.000000	9.829160	0.000000	0.000000	0.000000	16	-0.143261	0.048919	0.006905	-0.123701 	0.040473	0.006226
1.377989	-0.061035	0.061035	-0.061035	0.019160	0.000000	9.752520	0.000000	0.000000	0.000000	16	-0.140821	0.047982	0.006825	-0.118856 	0.039544	0.006104
1.379989	-0.061035	0.061035	-0.061035	0.019160	0.000000	9.752520	0.000000	0.000000	0.000000	16	-0.138149	0.047047	0.006741	-0.114108 	0.038633	0.005981
1.381989	-0.061035	0.000000	0.183105	0.019160	0.000000	9.752520	0.000000	0.000000	0.000000	16	-0.135292	0.046116	0.006701	-0.109574 	0.037741	0.006348
1.383989	-0.061035	0.000000	0.183105	0.019160	0.000000	9.752520	0.000000	0.000000	0.000000	16	-0.132276	0.045191	0.006703	-0.105131 	0.036867	0.006714
1.385989	-0.061035	0.000000	0.183105	0.019160	0.000000	9.752520	0.000000	0.000000	0.000000	16	-0.129126	0.044273	0.006740	-0.100777 	0.036010	0.007080
1.387989	-0.061035	-0.061035	-0.061035	0.019160	0.000000	9.752520	0.000000	0.000000	0.000000	16	-0.125876	0.043363	0.006762	-0.096630 	0.035170	0.006958
1.389989	-0.061035	-0.061035	-0.061035	0.019160	0.000000	9.752520	0.000000	0.000000	0.000000	16	-0.122545	0.042461	0.006769	-0.092566 	0.034347	0.006836
1.391989	0.000000	0.000000	0.061035	0.019160	0.000000	9.752520	0.000000	0.000000	0.000000	16	-0.119137	0.041581	0.006788	-0.088463 	0.033660	0.006958
1.393989	0.000000	0.000000	0.061035	0.019160	0.000000	9.752520	0.000000	0.000000	0.000000	16	-0.115668	0.040722	0.006818	-0.084442 	0.032987	0.007080
1.395989	0.000000	0.000000	0.061035	0.019160	0.000000	9.752520	0.000000	0.000000	0.000000	16	-0.112151	0.039882	0.006856	-0.080502 	0.032327	0.007202
1.397989	-0.061035	0.061035	-0.122070	0.019160	0.000000	9.752520	0.000000	0.000000	0.000000	16	-0.108588	0.039050	0.006866	-0.076521 	0.031561	0.006958
1.399989	-0.061035	0.061035	-0.122070	0.019160	0.000000	9.752520	0.000000	0.000000	0.000000	16	-0.104991	0.038226	0.006851	-0.072620 	0.030810	0.006714
1.401989	0.000000	-0.122070	0.061035	0.019160	0.000000	9.752520	0.000000	0.000000	0.000000	16	-0.101408	0.037423	0.006849	-0.069155 	0.030194	0.006836
1.403989	0.000000	-0.122070	0.061035	0.019160	0.000000	9.752520	0.000000	0.000000	0.000000	16	-0.097843	0.036639	0.006860	-0.065760 	0.029590	0.006958
1.405989	0.000000	-0.122070	0.061035	0.019160	0.000000	9.752520	0.000000	0.000000	0.000000	16	-0.094302	0.035875	0.006882	-0.062433 	0.028998	0.007080
1.407989	0.122070	0.061035	-0.061035	-0.057480	0.000000	9.752520	0.000000	0.000000	0.000000	16	-0.091653	0.035153	0.006890	-0.067818 	0.028657	0.006958
1.409989	0.122070	0.061035	-0.061035	-0.057480	0.000000	9.752520	0.000000	0.000000	0.000000	16	-0.089798	0.034470	0.006884	-0.073096 	0.028323	0.006836
1.411989	0.000000	-0.122070	0.000000	-0.057480	0.000000	9.752520	0.000000	0.000000	0.000000	16	-0.088681	0.033799	0.006880	-0.078628 	0.027757	0.006836
1.413989	0.000000	-0.122070	0.000000	-0.057480	0.000000	9.752520	0.000000	0.000000	0.000000	16	-0.088218	0.033139	0.006875	-0.084049 	0.027202	0.006836
1.415989	0.000000	-0.122070	0.000000	-0.057480	0.000000	9.752520	0.000000	0.000000	0.000000	16	-0.088332	0.032491	0.006871	-0.089361 	0.026658	0.006836
1.417989	-0.061035	-0.061035	-0.061035	-0.057480	0.000000	9.752520	0.000000	0.000000	0.000000	16	-0.088943	0.031843	0.006856	-0.094447 	0.026005	0.006714
1.419989	-0.061035	-0.061035	-0.061035	-0.057480	0.000000	9.752520	0.000000	0.000000	0.000000	16	-0.089992	0.031195	0.006829	-0.099432 	0.025365	0.006592
1.421989	0.061035	0.000000	0.000000	-0.057480	0.000000	9.752520	0.000000	0.000000	0.000000	16	-0.091413	0.030573	0.006805	-0.104197 	0.024978	0.006592
1.423989	0.061035	0.000000	0.000000	-0.057480	0.000000	9.752520	0.000000	0.000000	0.000000	16	-0.093158	0.029976	0.006784	-0.108868 	0.024598	0.006592
1.425989	0.061035	0.000000	0.000000	-0.057480	0.000000	9.752520	0.000000	0.000000	0.000000	16	-0.095187	0.029401	0.006765	-0.113444 	0.024225	0.006592
1.427989	-0.061035	-0.061035	0.183105	-0.057480	0.000000	9.752520	0.000000	0.000000	0.000000	16	-0.097473	0.028823	0.006784	-0.118049 	0.023621	0.006958
1.429989	-0.061035	-0.061035	0.183105	-0.057480	0.000000	9.752520	0.000000	0.000000	0.000000	16	-0.099982	0.028243	0.006838	-0.122562 	0.023029	0.007324
1.431989	0.000000	-0.061035	0.000000	-0.057480	0.000000	9.752520	0.000000	0.000000	0.000000	16	-0.102682	0.027676	0.006887	-0.126984 	0.022569	0.007324
1.433989	0.000000	-0.061035	0.000000	-0.057480	0.000000	9.752520	0.000000	0.000000	0.000000	16	-0.105546	0.027120	0.006931	-0.131318 	0.022117	0.007324
1.435989	0.000000	-0.061035	0.000000	-0.057480	0.000000	9.752520	0.000000	0.000000	0.000000	16	-0.108548	0.026575	0.006970	-0.135565 	0.021675	0.007324
1.437989	0.000000	0.061035	-0.122070	-0.057480	0.000000	9.752520	0.000000	0.000000	0.000000	16	-0.111642	0.026042	0.006981	-0.139489 	0.021241	0.007080
1.439989	0.000000	0.061035	-0.122070	-0.057480	0.000000	9.752520	0.000000	0.000000	0.000000	16	-0.114811	0.025519	0.006966	-0.143333 	0.020817	0.006836
1.441989	-0.122070	-0.061035	0.122070	-0.057480	0.000000	9.752520	0.000000	0.000000	0.000000	16	-0.118064	0.024984	0.006978	-0.147340 	0.020161	0.007080
1.443989	-0.122070	-0.061035	0.122070	-0.057480	0.000000	9.752520	0.000000	0.000000	0.000000	16	-0.121384	0.024437	0.007012	-0.151267 	0.019518	0.007324
1.445989	-0.122070	-0.061035	0.122070	-0.057480	0.000000	9.752520	0.000000	0.000000	0.000000	16	-0.124757	0.023882	0.007068	-0.155115 	0.018889	0.007568
1.447989	0.000000	0.000000	0.061035	0.019160	0.000000	9.752520	0.000000	0.000000	0.000000	16	-0.127258	0.023345	0.007130	-0.149762 	0.018511	0.007690
1.449988	0.000000	0.000000	0.061035	0.019160	0.000000	9.752520	0.000000	0.000000	0.000000	16	-0.128984	0.022825	0.007198	-0.144515 	0.018141	0.007812
1.451988	0.000000	-0.061035	-0.061035	0.019160	0.000000	9.752520	0.000000	0.000000	0.000000	16	-0.130034	0.022320	0.007248	-0.139493 	0.017778	0.007690
1.453988	0.000000	-0.061035	-0.061035	0.019160	0.000000	9.752520	0.000000	0.000000	0.000000	16	-0.130488	0.021830	0.007280	-0.134571 	0.017422	0.007568
1.455988	0.000000	-0.061035	-0.061035	0.019160	0.000000	9.752520	0.000000	0.000000	0.000000	16	-0.130414	0.021355	0.007296	-0.129748 	0.017074	0.007446
1.457988	0.000000	0.000000	-0.061035	0.019160	0.000000	9.752520	0.000000	0.000000	0.000000	16	-0.129863	0.020892	0.007299	-0.124902 	0.016733	0.007324
1.459988	0.000000	0.000000	-0.061035	0.019160	0.000000	9.752520	0.000000	0.000000	0.000000	16	-0.128892	0.020443	0.007289	-0.120153 	0.016398	0.007202
1.461988	-0.061035	-0.061035	-0.061035	0.019160	0.000000	9.752520	0.000000	0.000000	0.000000	16	-0.127565	0.019994	0.007269	-0.115618 	0.015950	0.007080
1.463988	-0.061035	-0.061035	-0.061035	0.019160	0.000000	9.752520	0.000000	0.000000	0.000000	16	-0.125925	0.019546	0.007237	-0.111174 	0.015512	0.006958
1.465988	-0.061035	-0.061035	-0.061035	0.019160	0.000000	9.752520	0.000000	0.000000	0.000000	16	-0.124015	0.019099	0.007197	-0.106818 	0.015082	0.006836
1.467988	0.183105	0.061035	0.000000	0.019160	0.000000	9.752520	0.000000	0.000000	0.000000	16	-0.121844	0.018703	0.007161	-0.102311 	0.015139	0.006836
1.469988	0.183105	0.061035	0.000000	0.019160	0.000000	9.752520	0.000000	0.000000	0.000000	16	-0.119449	0.018352	0.007129	-0.097894 	0.015195	0.006836
1.471988	0.854492	0.122070	-0.061035	0.019160	0.000000	9.752520	0.000000	0.000000	0.000000	16	-0.116849	0.018174	0.007087	-0.093445 	0.016566	0.006714
1.473988	0.854492	0.122070	-0.061035	0.019160	0.000000	9.752520	0.000000	0.000000	0.000000	16	-0.114073	0.018147	0.007038	-0.089086 	0.017910	0.006592
1.475988	0.854492	0.122070	-0.061035	0.019160	0.000000	9.752520	0.000000	0.000000	0.000000	16	-0.111147	0.018255	0.006981	-0.084813 	0.019226	0.006470
1.477988	0.305176	-0.061035	-0.122070	0.019160	0.000000	9.752520	0.000000	0.000000	0.000000	16	-0.108131	0.018374	0.006905	-0.080985 	0.019440	0.006226
1.479988	0.305176	-0.061035	-0.122070	0.019160	0.000000	9.752520	0.000000	0.000000	0.000000	16	-0.105041	0.018501	0.006813	-0.077234 	0.019649	0.005981
1.481988	0.305176	0.061035	-0.366211	0.019160	0.000000	9.752520	0.000000	0.000000	0.000000	16	-0.101869	0.018636	0.006657	-0.073318 	0.019854	0.005249
1.483988	0.305176	0.061035	-0.366211	0.019160	0.000000	9.752520	0.000000	0.000000	0.000000	16	-0.098630	0.018778	0.006443	-0.069481 	0.020055	0.004517
1.485988	0.305176	0.061035	-0.366211	0.019160	0.000000	9.752520	0.000000	0.000000	0.000000	16	-0.095339	0.018926	0.006177	-0.065720 	0.020252	0.003784
1.487988	0.366211	0.000000	-0.122070	0.019160	0.000000	9.752520	0.000000	0.000000	0.000000	16	-0.092021	0.019090	0.005913	-0.062155 	0.020565	0.003540
1.489988	0.366211	0.000000	-0.122070	0.019160	0.000000	9.752520	0.000000	0.000000	0.000000	16	-0.088684	0.019268	0.005651	-0.058660 	0.020872	0.003296
1.491988	0.183105	0.061035	0.000000	0.019160	0.000000	9.752520	0.000000	0.000000	0.000000	16	-0.085328	0.019422	0.005416	-0.055116 	0.020813	0.003296
1.493988	0.183105	0.061035	0.000000	0.019160	0.000000	9.752520	0.000000	0.000000	0.000000	16	-0.081959	0.019556	0.005204	-0.051643 	0.020756	0.003296
1.495988	0.183105	0.061035	0.000000	0.019160	0.000000	9.752520	0.000000	0.000000	0.000000	16	-0.078587	0.019670	0.005013	-0.048239 	0.020699	0.003296
1.497988	0.000000	0.061035	-0.183105	0.019160	0.000000	9.752520	0.000000	0.000000	0.000000	16	-0.075219	0.019732	0.004805	-0.044903 	0.020285	0.002930
1.499988	0.000000	0.061035	-0.183105	0.019160	0.000000	9.752520	0.000000	0.000000	0.000000	16	-0.071860	0.019746	0.004581	-0.041634 	0.019880	0.002563
1.501988	0.000000	0.000000	0.061035	0.019160	0.000000	9.752520	0.000000	0.000000	0.000000	16	-0.068529	0.019720	0.004391	-0.038550 	0.019482	0.002686
1.503988	0.000000	0.000000	0.061035	0.019160	0.000000	9.752520	0.000000	0.000000	0.000000	16	-0.065229	0.019657	0.004233	-0.035527 	0.019092	0.002808
1.505988	0.000000	0.000000	0.061035	0.019160	0.000000	9.752520	0.000000	0.000000	0.000000	16	-0.061963	0.019563	0.004102	-0.032566 	0.018711	0.002930
1.507988	-0.061035	-0.183105	0.000000	0.019160	0.000000	9.752520	0.000000	0.000000	0.000000	16	-0.058769	0.019428	0.003985	-0.030022 	0.018217	0.002930
1.509988	-0.061035	-0.183105	0.000000	0.019160	0.000000	9.752520	0.000000	0.000000	0.000000	16	-0.055645	0.019259	0.003880	-0.027529 	0.017733	0.002930
1.511988	0.000000	-0.061035	-0.061035	0.019160	0.000000	9.752520	0.000000	0.000000	0.000000	16	-0.052565	0.019070	0.003772	-0.024847 	0.017378	0.002808
1.513988	0.000000	-0.061035	-0.061035	0.019160	0.000000	9.752520	0.000000	0.000000	0.000000	16	-0.049530	0.018866	0.003664	-0.022218 	0.017031	0.002686
1.515988	0.000000	-0.061035	-0.061035	0.019160	0.000000	9.752520	0.000000	0.000000	0.000000	16	-0.046541	0.018649	0.003554	-0.019642 	0.016690	0.002563
1.517988	0.000000	0.000000	-0.061035	-0.057480	0.000000	9.752520	0.000000	0.000000	0.000000	16	-0.044487	0.018420	0.003442	-0.026003 	0.016356	0.002441
1.519988	0.000000	0.000000	-0.061035	-0.057480	0.000000	9.752520	0.000000	0.000000	0.000000	16	-0.043262	0.018181	0.003330	-0.032237 	0.016029	0.002319
1.521988	0.061035	0.000000	0.061035	-0.057480	0.000000	9.752520	0.000000	0.000000	0.000000	16	-0.042771	0.017945	0.003241	-0.038346 	0.015828	0.002441
1.523988	0.061035	0.000000	0.061035	-0.057480	0.000000	9.752520	0.000000	0.000000	0.000000	16	-0.042927	0.017714	0.003173	-0.044333 	0.015631	0.002563
1.525988	0.061035	0.000000	0.061035	-0.057480	0.000000	9.752520	0.000000	0.000000	0.000000	16	-0.043654	0.017486	0.003125	-0.050201 	0.015438	0.002686
1.527987	-0.122070	0.000000	0.061035	0.019160	0.000000	9.752520	0.000000	0.000000	0.000000	16	-0.043983	0.017227	0.003093	-0.046945 	0.014890	0.002808
1.529987	-0.122070	0.000000	0.061035	0.019160	0.000000	9.752520	0.000000	0.000000	0.000000	16	-0.043961	0.016939	0.003077	-0.043755 	0.014353	0.002930
1.531987	-0.366211	-0.122070	0.000000	0.019160	0.000000	9.752520	0.000000	0.000000	0.000000	16	-0.043651	0.016580	0.003062	-0.040868 	0.013348	0.002930
1.533987	-0.366211	-0.122070	0.000000	0.019160	0.000000	9.752520	0.000000	0.000000	0.000000	16	-0.043090	0.016159	0.003049	-0.038038 	0.012364	0.002930
1.535987	-0.366211	-0.122070	0.000000	0.019160	0.000000	9.752520	0.000000	0.000000	0.000000	16	-0.042308	0.015683	0.003037	-0.035266 	0.011398	0.002930
1.537987	-0.549316	-0.427246	0.183105	0.019160	0.000000	9.752520	0.000000	0.000000	0.000000	16	-0.041391	0.015124	0.003063	-0.033146 	0.010094	0.003296
1.539987	-0.549316	-0.427246	0.183105	0.019160	0.000000	9.752520	0.000000	0.000000	0.000000	16	-0.040359	0.014493	0.003123	-0.031069 	0.008815	0.003662
1.541987	-0.427246	-0.305176	0.427246	0.019160	0.000000	9.752520	0.000000	0.000000	0.000000	16	-0.039203	0.013824	0.003262	-0.028795 	0.007802	0.004517
1.543987	-0.427246	-0.305176	0.427246	0.019160	0.000000	9.752520	0.000000	0.000000	0.000000	16	-0.037939	0.013122	0.003473	-0.026566 	0.006808	0.005371
1.545987	-0.427246	-0.305176	0.427246	0.019160	0.000000	9.752520	0.000000	0.000000	0.000000	16	-0.036583	0.012393	0.003748	-0.024381 	0.005835	0.006226
1.547987	-0.244141	-0.305176	0.427246	-0.057480	0.000000	9.752520	0.000000	0.000000	0.000000	16	-0.036050	0.011678	0.004081	-0.031246 	0.005239	0.007080
1.549987	-0.244141	-0.305176	0.427246	-0.057480	0.000000	9.752520	0.000000	0.000000	0.000000	16	-0.036242	0.010976	0.004467	-0.037973 	0.004656	0.007935
1.551987	-0.183105	-0.183105	0.183105	-0.057480	0.000000	9.752520	0.000000	0.000000	0.000000	16	-0.037050	0.010299	0.004850	-0.044326 	0.004204	0.008301
1.553987	-0.183105	-0.183105	0.183105	-0.057480	0.000000	9.752520	0.000000	0.000000	0.000000	16	-0.038401	0.009645	0.005232	-0.050553 	0.003761	0.008667
1.555987	-0.183105	-0.183105	0.183105	-0.057480	0.000000	9.752520	0.000000	0.000000	0.000000	16	-0.040226	0.009013	0.005612	-0.056655 	0.003327	0.009033
1.557987	-0.183105	-0.122070	0.122070	0.019160	0.000000	9.752520	0.000000	0.000000	0.000000	16	-0.041554	0.008402	0.005978	-0.053509 	0.002902	0.009277
1.559987	-0.183105	-0.122070	0.122070	0.019160	0.000000	9.752520	0.000000	0.000000	0.000000	16	-0.042442	0.007810	0.006333	-0.050427 	0.002485	0.009521
1.561987	-0.061035	0.000000	-0.061035	0.019160	0.000000	9.752520	0.000000	0.000000	0.000000	16	-0.042914	0.007261	0.006639	-0.047167 	0.002315	0.009399
1.563987	-0.061035	0.000000	-0.061035	0.019160	0.000000	9.752520	0.000000	0.000000	0.000000	16	-0.043020	0.006750	0.006903	-0.043973 	0.002149	0.009277
